"subj"	"block"	"bsl"	"speed"	"trialN"	"condi"	"setID"	"RTs"	"dprime"	"cyc"	"cond"	"tempo"	"response"	"RTadj"	"tone"
"1"	"1"	1	0.48876	1	6	"2"	18	1.054	3.919928	"TEN"	"RANDREG"	"25ms"	"Hit"	0.56524	23
"2"	"1"	1	0.48876	1	7	"2"	16	0.9884	3.919928	"TEN"	"RANDREG"	"25ms"	"Hit"	0.49964	20
"3"	"1"	1	0.48876	1	9	"2"	4	0.8515	3.919928	"TEN"	"RANDREG"	"25ms"	"Hit"	0.36274	15
"4"	"1"	1	0.48876	1	10	"2"	29	0.9833	3.919928	"TEN"	"RANDREG"	"25ms"	"Hit"	0.49454	20
"5"	"1"	1	0.48876	1	11	"2"	14	0.9926	3.919928	"TEN"	"RANDREG"	"25ms"	"Hit"	0.50384	20
"6"	"1"	1	0.48876	1	13	"2"	2	0.9484	3.919928	"TEN"	"RANDREG"	"25ms"	"Hit"	0.45964	18
"7"	"1"	1	0.48876	1	14	"2"	10	0.9763	3.919928	"TEN"	"RANDREG"	"25ms"	"Hit"	0.48754	20
"8"	"1"	1	0.48876	1	17	"2"	28	0.9279	3.919928	"TEN"	"RANDREG"	"25ms"	"Hit"	0.43914	18
"9"	"1"	1	0.48876	1	19	"2"	22	0.9176	3.919928	"TEN"	"RANDREG"	"25ms"	"Hit"	0.42884	17
"10"	"1"	1	0.48876	1	22	"2"	23	1.0124	3.919928	"TEN"	"RANDREG"	"25ms"	"Hit"	0.52364	21
"11"	"1"	1	0.48876	1	27	"2"	15	0.9365	3.919928	"TEN"	"RANDREG"	"25ms"	"Hit"	0.44774	18
"12"	"1"	1	0.48876	1	29	"2"	32	1.1024	3.919928	"TEN"	"RANDREG"	"25ms"	"Hit"	0.61364	25
"13"	"1"	1	0.48876	1	31	"2"	9	0.9352	3.919928	"TEN"	"RANDREG"	"25ms"	"Hit"	0.44644	18
"14"	"1"	1	0.48876	1	32	"2"	26	1.0067	3.919928	"TEN"	"RANDREG"	"25ms"	"Hit"	0.51794	21
"15"	"1"	1	0.48876	1	34	"2"	27	0.8971	3.919928	"TEN"	"RANDREG"	"25ms"	"Hit"	0.40834	16
"16"	"1"	1	0.48876	1	35	"2"	33	0.7966	3.919928	"TEN"	"RANDREG"	"25ms"	"Hit"	0.30784	12
"17"	"1"	1	0.48876	1	36	"2"	24	0.9498	3.919928	"TEN"	"RANDREG"	"25ms"	"Hit"	0.46104	18
"18"	"1"	1	0.48876	1	40	"2"	21	1.0338	3.919928	"TEN"	"RANDREG"	"25ms"	"Hit"	0.54504	22
"19"	"1"	1	0.48876	1	42	"2"	31	1.0076	3.919928	"TEN"	"RANDREG"	"25ms"	"Hit"	0.51884	21
"20"	"1"	1	0.48876	1	45	"2"	30	1.1119	3.919928	"TEN"	"RANDREG"	"25ms"	"Hit"	0.62314	25
"21"	"1"	1	0.48876	1	50	"2"	6	0.9274	3.919928	"TEN"	"RANDREG"	"25ms"	"Hit"	0.43864	18
"22"	"1"	1	0.48876	1	54	"2"	5	1.0204	3.919928	"TEN"	"RANDREG"	"25ms"	"Hit"	0.53164	21
"23"	"1"	1	0.48876	1	55	"2"	19	0.953	3.919928	"TEN"	"RANDREG"	"25ms"	"Hit"	0.46424	19
"24"	"1"	1	0.48876	1	57	"2"	7	0.7995	3.919928	"TEN"	"RANDREG"	"25ms"	"Hit"	0.31074	12
"25"	"1"	1	0.48876	1	59	"2"	34	1.2299	3.919928	"TEN"	"RANDREG"	"25ms"	"Hit"	0.74114	30
"26"	"1"	1	0.48876	1	60	"2"	12	0.8417	3.919928	"TEN"	"RANDREG"	"25ms"	"Hit"	0.35294	14
"27"	"1"	1	0.48876	1	63	"2"	35	0.8795	3.919928	"TEN"	"RANDREG"	"25ms"	"Hit"	0.39074	16
"28"	"1"	1	0.48876	1	70	"2"	17	0.8072	3.919928	"TEN"	"RANDREG"	"25ms"	"Hit"	0.31844	13
"29"	"1"	1	0.48876	1	74	"2"	20	1.0461	3.919928	"TEN"	"RANDREG"	"25ms"	"Hit"	0.55734	22
"30"	"1"	1	0.48876	1	75	"2"	13	0.9405	3.919928	"TEN"	"RANDREG"	"25ms"	"Hit"	0.45174	18
"31"	"1"	1	0.48876	1	76	"2"	8	0.8971	3.919928	"TEN"	"RANDREG"	"25ms"	"Hit"	0.40834	16
"32"	"1"	1	0.48876	1	77	"2"	25	0.8594	3.919928	"TEN"	"RANDREG"	"25ms"	"Hit"	0.37064	15
"33"	"1"	1	0.48876	1	78	"2"	3	0.974	3.919928	"TEN"	"RANDREG"	"25ms"	"Hit"	0.48524	19
"34"	"1"	1	0.48876	1	80	"2"	1	0.8638	3.919928	"TEN"	"RANDREG"	"25ms"	"Hit"	0.37504	15
"35"	"10"	2	0.41126	1	2	"2"	32	0.9504	3.604818	"TEN"	"RANDREG"	"25ms"	"Hit"	0.53914	22
"36"	"10"	2	0.41126	1	3	"2"	35	0.8304	3.604818	"TEN"	"RANDREG"	"25ms"	"Hit"	0.41914	17
"37"	"10"	2	0.41126	1	4	"2"	20	0.7414	3.604818	"TEN"	"RANDREG"	"25ms"	"Hit"	0.33014	13
"38"	"10"	2	0.41126	1	5	"2"	28	1.0263	3.604818	"TEN"	"RANDREG"	"25ms"	"Hit"	0.61504	25
"39"	"10"	2	0.41126	1	8	"2"	13	0.8073	3.604818	"TEN"	"RANDREG"	"25ms"	"Hit"	0.39604	16
"40"	"10"	2	0.41126	1	11	"2"	19	0.8395	3.604818	"TEN"	"RANDREG"	"25ms"	"Hit"	0.42824	17
"41"	"10"	2	0.41126	1	17	"2"	14	0.8329	3.604818	"TEN"	"RANDREG"	"25ms"	"Hit"	0.42164	17
"42"	"10"	2	0.41126	1	26	"2"	31	0.9196	3.604818	"TEN"	"RANDREG"	"25ms"	"Hit"	0.50834	20
"43"	"10"	2	0.41126	1	34	"2"	15	0.8445	3.604818	"TEN"	"RANDREG"	"25ms"	"Hit"	0.43324	17
"44"	"10"	2	0.41126	1	36	"2"	22	0.8648	3.604818	"TEN"	"RANDREG"	"25ms"	"Hit"	0.45354	18
"45"	"10"	2	0.41126	1	39	"2"	24	1.019	3.604818	"TEN"	"RANDREG"	"25ms"	"Hit"	0.60774	24
"46"	"10"	2	0.41126	1	40	"2"	10	0.9672	3.604818	"TEN"	"RANDREG"	"25ms"	"Hit"	0.55594	22
"47"	"10"	2	0.41126	1	43	"2"	4	1.0364	3.604818	"TEN"	"RANDREG"	"25ms"	"Hit"	0.62514	25
"48"	"10"	2	0.41126	1	44	"2"	12	0.8848	3.604818	"TEN"	"RANDREG"	"25ms"	"Hit"	0.47354	19
"49"	"10"	2	0.41126	1	45	"2"	23	0.8119	3.604818	"TEN"	"RANDREG"	"25ms"	"Hit"	0.40064	16
"50"	"10"	2	0.41126	1	47	"2"	17	0.7292	3.604818	"TEN"	"RANDREG"	"25ms"	"Hit"	0.31794	13
"51"	"10"	2	0.41126	1	48	"2"	21	0.884	3.604818	"TEN"	"RANDREG"	"25ms"	"Hit"	0.47274	19
"52"	"10"	2	0.41126	1	49	"2"	16	0.746	3.604818	"TEN"	"RANDREG"	"25ms"	"Hit"	0.33474	13
"53"	"10"	2	0.41126	1	51	"2"	34	0.8054	3.604818	"TEN"	"RANDREG"	"25ms"	"Hit"	0.39414	16
"54"	"10"	2	0.41126	1	53	"2"	26	0.8717	3.604818	"TEN"	"RANDREG"	"25ms"	"Hit"	0.46044	18
"55"	"10"	2	0.41126	1	54	"2"	30	0.8474	3.604818	"TEN"	"RANDREG"	"25ms"	"Hit"	0.43614	17
"56"	"10"	2	0.41126	1	55	"2"	27	0.7262	3.604818	"TEN"	"RANDREG"	"25ms"	"Hit"	0.31494	13
"57"	"10"	2	0.41126	1	56	"2"	7	0.8932	3.604818	"TEN"	"RANDREG"	"25ms"	"Hit"	0.48194	19
"58"	"10"	2	0.41126	1	57	"2"	6	1.0192	3.604818	"TEN"	"RANDREG"	"25ms"	"Hit"	0.60794	24
"59"	"10"	2	0.41126	1	58	"2"	18	0.6857	3.604818	"TEN"	"RANDREG"	"25ms"	"Hit"	0.27444	11
"60"	"10"	2	0.41126	1	60	"2"	2	0.9487	3.604818	"TEN"	"RANDREG"	"25ms"	"Hit"	0.53744	21
"61"	"10"	2	0.41126	1	61	"2"	25	0.8738	3.604818	"TEN"	"RANDREG"	"25ms"	"Hit"	0.46254	19
"62"	"10"	2	0.41126	1	62	"2"	5	0.7423	3.604818	"TEN"	"RANDREG"	"25ms"	"Hit"	0.33104	13
"63"	"10"	2	0.41126	1	68	"2"	3	1.1085	3.604818	"TEN"	"RANDREG"	"25ms"	"Hit"	0.69724	28
"64"	"10"	2	0.41126	1	69	"2"	1	0.8878	3.604818	"TEN"	"RANDREG"	"25ms"	"Hit"	0.47654	19
"65"	"10"	2	0.41126	1	72	"2"	9	0.8306	3.604818	"TEN"	"RANDREG"	"25ms"	"Hit"	0.41934	17
"66"	"10"	2	0.41126	1	78	"2"	29	0.9554	3.604818	"TEN"	"RANDREG"	"25ms"	"Hit"	0.54414	22
"67"	"10"	2	0.41126	1	79	"2"	8	0.8376	3.604818	"TEN"	"RANDREG"	"25ms"	"Hit"	0.42634	17
"68"	"10"	2	0.41126	1	80	"2"	11	0.9275	3.604818	"TEN"	"RANDREG"	"25ms"	"Hit"	0.51624	21
"70"	"11"	6	0.4447	1	7	"2"	28	1.0855	3.886256	"TEN"	"RANDREG"	"25ms"	"Hit"	0.6408	26
"71"	"11"	6	0.4447	1	8	"2"	19	1.0583	3.886256	"TEN"	"RANDREG"	"25ms"	"Hit"	0.6136	25
"72"	"11"	6	0.4447	1	9	"2"	1	1.0474	3.886256	"TEN"	"RANDREG"	"25ms"	"Hit"	0.6027	24
"73"	"11"	6	0.4447	1	11	"2"	21	0.968	3.886256	"TEN"	"RANDREG"	"25ms"	"Hit"	0.5233	21
"74"	"11"	6	0.4447	1	13	"2"	16	0.9414	3.886256	"TEN"	"RANDREG"	"25ms"	"Hit"	0.4967	20
"75"	"11"	6	0.4447	1	16	"2"	8	1.0956	3.886256	"TEN"	"RANDREG"	"25ms"	"Hit"	0.6509	26
"76"	"11"	6	0.4447	1	17	"2"	4	0.9704	3.886256	"TEN"	"RANDREG"	"25ms"	"Hit"	0.5257	21
"77"	"11"	6	0.4447	1	18	"2"	13	1.129	3.886256	"TEN"	"RANDREG"	"25ms"	"Hit"	0.6843	27
"78"	"11"	6	0.4447	1	22	"2"	24	0.9955	3.886256	"TEN"	"RANDREG"	"25ms"	"Hit"	0.5508	22
"80"	"11"	6	0.4447	1	28	"2"	9	0.8613	3.886256	"TEN"	"RANDREG"	"25ms"	"Hit"	0.4166	17
"81"	"11"	6	0.4447	1	31	"2"	11	1.0864	3.886256	"TEN"	"RANDREG"	"25ms"	"Hit"	0.6417	26
"82"	"11"	6	0.4447	1	35	"2"	33	1.051	3.886256	"TEN"	"RANDREG"	"25ms"	"Hit"	0.6063	24
"83"	"11"	6	0.4447	1	42	"2"	5	1.0243	3.886256	"TEN"	"RANDREG"	"25ms"	"Hit"	0.5796	23
"84"	"11"	6	0.4447	1	43	"2"	15	1.025	3.886256	"TEN"	"RANDREG"	"25ms"	"Hit"	0.5803	23
"85"	"11"	6	0.4447	1	47	"2"	34	1.0509	3.886256	"TEN"	"RANDREG"	"25ms"	"Hit"	0.6062	24
"86"	"11"	6	0.4447	1	49	"2"	35	0.9759	3.886256	"TEN"	"RANDREG"	"25ms"	"Hit"	0.5312	21
"87"	"11"	6	0.4447	1	50	"2"	30	0.978	3.886256	"TEN"	"RANDREG"	"25ms"	"Hit"	0.5333	21
"88"	"11"	6	0.4447	1	51	"2"	6	1.1515	3.886256	"TEN"	"RANDREG"	"25ms"	"Hit"	0.7068	28
"89"	"11"	6	0.4447	1	54	"2"	31	1.0228	3.886256	"TEN"	"RANDREG"	"25ms"	"Hit"	0.5781	23
"90"	"11"	6	0.4447	1	56	"2"	12	0.9521	3.886256	"TEN"	"RANDREG"	"25ms"	"Hit"	0.5074	20
"91"	"11"	6	0.4447	1	57	"2"	26	0.897	3.886256	"TEN"	"RANDREG"	"25ms"	"Hit"	0.4523	18
"93"	"11"	6	0.4447	1	60	"2"	32	0.9429	3.886256	"TEN"	"RANDREG"	"25ms"	"Hit"	0.4982	20
"95"	"11"	6	0.4447	1	67	"2"	17	1.0315	3.886256	"TEN"	"RANDREG"	"25ms"	"Hit"	0.5868	23
"96"	"11"	6	0.4447	1	68	"2"	27	0.7763	3.886256	"TEN"	"RANDREG"	"25ms"	"Hit"	0.3316	13
"97"	"11"	6	0.4447	1	74	"2"	14	1.0874	3.886256	"TEN"	"RANDREG"	"25ms"	"Hit"	0.6427	26
"98"	"11"	6	0.4447	1	77	"2"	3	1.0046	3.886256	"TEN"	"RANDREG"	"25ms"	"Hit"	0.5599	22
"99"	"11"	6	0.4447	1	78	"2"	22	1.0408	3.886256	"TEN"	"RANDREG"	"25ms"	"Hit"	0.5961	24
"100"	"11"	6	0.4447	1	79	"2"	18	0.9364	3.886256	"TEN"	"RANDREG"	"25ms"	"Hit"	0.4917	20
"101"	"11"	6	0.4447	1	80	"2"	10	0.9283	3.886256	"TEN"	"RANDREG"	"25ms"	"Hit"	0.4836	19
"102"	"12"	4	0.52328	1	2	"2"	15	1.2502	3.886256	"TEN"	"RANDREG"	"25ms"	"Hit"	0.72692	29
"103"	"12"	4	0.52328	1	7	"2"	5	0.9628	3.886256	"TEN"	"RANDREG"	"25ms"	"Hit"	0.43952	18
"104"	"12"	4	0.52328	1	10	"2"	10	1.0087	3.886256	"TEN"	"RANDREG"	"25ms"	"Hit"	0.48542	19
"105"	"12"	4	0.52328	1	11	"2"	25	0.9506	3.886256	"TEN"	"RANDREG"	"25ms"	"Hit"	0.42732	17
"106"	"12"	4	0.52328	1	13	"2"	33	0.917	3.886256	"TEN"	"RANDREG"	"25ms"	"Hit"	0.39372	16
"107"	"12"	4	0.52328	1	15	"2"	19	0.9223	3.886256	"TEN"	"RANDREG"	"25ms"	"Hit"	0.39902	16
"108"	"12"	4	0.52328	1	24	"2"	35	1.0915	3.886256	"TEN"	"RANDREG"	"25ms"	"Hit"	0.56822	23
"109"	"12"	4	0.52328	1	27	"2"	32	0.7978	3.886256	"TEN"	"RANDREG"	"25ms"	"Hit"	0.27452	11
"110"	"12"	4	0.52328	1	29	"2"	16	0.8601	3.886256	"TEN"	"RANDREG"	"25ms"	"Hit"	0.33682	13
"111"	"12"	4	0.52328	1	30	"2"	26	0.7767	3.886256	"TEN"	"RANDREG"	"25ms"	"Hit"	0.25342	10
"112"	"12"	4	0.52328	1	32	"2"	21	0.8973	3.886256	"TEN"	"RANDREG"	"25ms"	"Hit"	0.37402	15
"113"	"12"	4	0.52328	1	33	"2"	7	0.8921	3.886256	"TEN"	"RANDREG"	"25ms"	"Hit"	0.36882	15
"114"	"12"	4	0.52328	1	35	"2"	28	0.8158	3.886256	"TEN"	"RANDREG"	"25ms"	"Hit"	0.29252	12
"115"	"12"	4	0.52328	1	36	"2"	17	0.8607	3.886256	"TEN"	"RANDREG"	"25ms"	"Hit"	0.33742	13
"116"	"12"	4	0.52328	1	39	"2"	24	1.0829	3.886256	"TEN"	"RANDREG"	"25ms"	"Hit"	0.55962	22
"117"	"12"	4	0.52328	1	41	"2"	3	1.0023	3.886256	"TEN"	"RANDREG"	"25ms"	"Hit"	0.47902	19
"118"	"12"	4	0.52328	1	42	"2"	8	0.8772	3.886256	"TEN"	"RANDREG"	"25ms"	"Hit"	0.35392	14
"119"	"12"	4	0.52328	1	45	"2"	9	0.8518	3.886256	"TEN"	"RANDREG"	"25ms"	"Hit"	0.32852	13
"120"	"12"	4	0.52328	1	46	"2"	14	0.8663	3.886256	"TEN"	"RANDREG"	"25ms"	"Hit"	0.34302	14
"121"	"12"	4	0.52328	1	47	"2"	1	1.121	3.886256	"TEN"	"RANDREG"	"25ms"	"Hit"	0.59772	24
"122"	"12"	4	0.52328	1	50	"2"	29	0.8304	3.886256	"TEN"	"RANDREG"	"25ms"	"Hit"	0.30712	12
"123"	"12"	4	0.52328	1	52	"2"	23	1.018	3.886256	"TEN"	"RANDREG"	"25ms"	"Hit"	0.49472	20
"124"	"12"	4	0.52328	1	54	"2"	4	0.8895	3.886256	"TEN"	"RANDREG"	"25ms"	"Hit"	0.36622	15
"125"	"12"	4	0.52328	1	55	"2"	22	0.8612	3.886256	"TEN"	"RANDREG"	"25ms"	"Hit"	0.33792	14
"126"	"12"	4	0.52328	1	56	"2"	31	0.7893	3.886256	"TEN"	"RANDREG"	"25ms"	"Hit"	0.26602	11
"127"	"12"	4	0.52328	1	61	"2"	30	1.0859	3.886256	"TEN"	"RANDREG"	"25ms"	"Hit"	0.56262	23
"129"	"12"	4	0.52328	1	63	"2"	27	0.7497	3.886256	"TEN"	"RANDREG"	"25ms"	"Hit"	0.22642	9
"131"	"12"	4	0.52328	1	67	"2"	11	0.9156	3.886256	"TEN"	"RANDREG"	"25ms"	"Hit"	0.39232	16
"132"	"12"	4	0.52328	1	73	"2"	18	0.9162	3.886256	"TEN"	"RANDREG"	"25ms"	"Hit"	0.39292	16
"133"	"12"	4	0.52328	1	76	"2"	2	0.732	3.886256	"TEN"	"RANDREG"	"25ms"	"Hit"	0.20872	8
"134"	"12"	4	0.52328	1	77	"2"	12	0.8327	3.886256	"TEN"	"RANDREG"	"25ms"	"Hit"	0.30942	12
"135"	"12"	4	0.52328	1	78	"2"	13	0.9568	3.886256	"TEN"	"RANDREG"	"25ms"	"Hit"	0.43352	17
"136"	"12"	4	0.52328	1	79	"2"	20	1.1454	3.886256	"TEN"	"RANDREG"	"25ms"	"Hit"	0.62212	25
"137"	"13"	1	0.40298	1	2	"2"	12	1.19	3.680934	"TEN"	"RANDREG"	"25ms"	"Hit"	0.78702	31
"138"	"13"	1	0.40298	1	3	"2"	18	0.8119	3.680934	"TEN"	"RANDREG"	"25ms"	"Hit"	0.40892	16
"139"	"13"	1	0.40298	1	4	"2"	23	0.7993	3.680934	"TEN"	"RANDREG"	"25ms"	"Hit"	0.39632	16
"142"	"13"	1	0.40298	1	11	"2"	5	0.8274	3.680934	"TEN"	"RANDREG"	"25ms"	"Hit"	0.42442	17
"143"	"13"	1	0.40298	1	17	"2"	34	0.8672	3.680934	"TEN"	"RANDREG"	"25ms"	"Hit"	0.46422	19
"144"	"13"	1	0.40298	1	25	"2"	19	0.8228	3.680934	"TEN"	"RANDREG"	"25ms"	"Hit"	0.41982	17
"145"	"13"	1	0.40298	1	26	"2"	20	0.7978	3.680934	"TEN"	"RANDREG"	"25ms"	"Hit"	0.39482	16
"146"	"13"	1	0.40298	1	34	"2"	13	0.7321	3.680934	"TEN"	"RANDREG"	"25ms"	"Hit"	0.32912	13
"147"	"13"	1	0.40298	1	36	"2"	28	1.0234	3.680934	"TEN"	"RANDREG"	"25ms"	"Hit"	0.62042	25
"148"	"13"	1	0.40298	1	39	"2"	17	1.127	3.680934	"TEN"	"RANDREG"	"25ms"	"Hit"	0.72402	29
"149"	"13"	1	0.40298	1	40	"2"	10	0.8927	3.680934	"TEN"	"RANDREG"	"25ms"	"Hit"	0.48972	20
"150"	"13"	1	0.40298	1	43	"2"	33	0.8962	3.680934	"TEN"	"RANDREG"	"25ms"	"Hit"	0.49322	20
"151"	"13"	1	0.40298	1	44	"2"	29	0.9634	3.680934	"TEN"	"RANDREG"	"25ms"	"Hit"	0.56042	22
"152"	"13"	1	0.40298	1	45	"2"	1	0.8162	3.680934	"TEN"	"RANDREG"	"25ms"	"Hit"	0.41322	17
"153"	"13"	1	0.40298	1	47	"2"	6	0.6063	3.680934	"TEN"	"RANDREG"	"25ms"	"Hit"	0.20332	8
"154"	"13"	1	0.40298	1	48	"2"	26	0.814	3.680934	"TEN"	"RANDREG"	"25ms"	"Hit"	0.41102	16
"156"	"13"	1	0.40298	1	51	"2"	35	0.745	3.680934	"TEN"	"RANDREG"	"25ms"	"Hit"	0.34202	14
"158"	"13"	1	0.40298	1	54	"2"	3	0.6521	3.680934	"TEN"	"RANDREG"	"25ms"	"Hit"	0.24912	10
"159"	"13"	1	0.40298	1	55	"2"	14	1.0627	3.680934	"TEN"	"RANDREG"	"25ms"	"Hit"	0.65972	26
"161"	"13"	1	0.40298	1	57	"2"	8	0.9049	3.680934	"TEN"	"RANDREG"	"25ms"	"Hit"	0.50192	20
"162"	"13"	1	0.40298	1	58	"2"	27	0.7885	3.680934	"TEN"	"RANDREG"	"25ms"	"Hit"	0.38552	15
"164"	"13"	1	0.40298	1	61	"2"	4	0.9277	3.680934	"TEN"	"RANDREG"	"25ms"	"Hit"	0.52472	21
"165"	"13"	1	0.40298	1	62	"2"	25	0.8737	3.680934	"TEN"	"RANDREG"	"25ms"	"Hit"	0.47072	19
"166"	"13"	1	0.40298	1	68	"2"	21	0.9944	3.680934	"TEN"	"RANDREG"	"25ms"	"Hit"	0.59142	24
"167"	"13"	1	0.40298	1	69	"2"	15	0.7019	3.680934	"TEN"	"RANDREG"	"25ms"	"Hit"	0.29892	12
"168"	"13"	1	0.40298	1	72	"2"	2	0.7284	3.680934	"TEN"	"RANDREG"	"25ms"	"Hit"	0.32542	13
"169"	"13"	1	0.40298	1	78	"2"	7	0.7899	3.680934	"TEN"	"RANDREG"	"25ms"	"Hit"	0.38692	15
"170"	"13"	1	0.40298	1	79	"2"	11	0.8458	3.680934	"TEN"	"RANDREG"	"25ms"	"Hit"	0.44282	18
"171"	"13"	1	0.40298	1	80	"2"	22	0.8125	3.680934	"TEN"	"RANDREG"	"25ms"	"Hit"	0.40952	16
"172"	"2"	5	0.34746	1	2	"2"	24	0.9061	3.28386	"TEN"	"RANDREG"	"25ms"	"Hit"	0.55864	22
"174"	"2"	5	0.34746	1	7	"2"	9	0.8736	3.28386	"TEN"	"RANDREG"	"25ms"	"Hit"	0.52614	21
"175"	"2"	5	0.34746	1	9	"2"	22	0.7405	3.28386	"TEN"	"RANDREG"	"25ms"	"Hit"	0.39304	16
"176"	"2"	5	0.34746	1	10	"2"	2	0.816	3.28386	"TEN"	"RANDREG"	"25ms"	"Hit"	0.46854	19
"177"	"2"	5	0.34746	1	13	"2"	28	0.658	3.28386	"TEN"	"RANDREG"	"25ms"	"Hit"	0.31054	12
"178"	"2"	5	0.34746	1	15	"2"	5	0.7266	3.28386	"TEN"	"RANDREG"	"25ms"	"Hit"	0.37914	15
"179"	"2"	5	0.34746	1	17	"2"	31	0.8242	3.28386	"TEN"	"RANDREG"	"25ms"	"Hit"	0.47674	19
"180"	"2"	5	0.34746	1	18	"2"	13	0.7108	3.28386	"TEN"	"RANDREG"	"25ms"	"Hit"	0.36334	15
"181"	"2"	5	0.34746	1	21	"2"	21	0.9515	3.28386	"TEN"	"RANDREG"	"25ms"	"Hit"	0.60404	24
"182"	"2"	5	0.34746	1	22	"2"	3	0.803	3.28386	"TEN"	"RANDREG"	"25ms"	"Hit"	0.45554	18
"183"	"2"	5	0.34746	1	23	"2"	1	0.7823	3.28386	"TEN"	"RANDREG"	"25ms"	"Hit"	0.43484	17
"184"	"2"	5	0.34746	1	28	"2"	8	0.918	3.28386	"TEN"	"RANDREG"	"25ms"	"Hit"	0.57054	23
"185"	"2"	5	0.34746	1	33	"2"	16	0.8199	3.28386	"TEN"	"RANDREG"	"25ms"	"Hit"	0.47244	19
"186"	"2"	5	0.34746	1	34	"2"	30	0.9161	3.28386	"TEN"	"RANDREG"	"25ms"	"Hit"	0.56864	23
"187"	"2"	5	0.34746	1	39	"2"	34	0.7684	3.28386	"TEN"	"RANDREG"	"25ms"	"Hit"	0.42094	17
"188"	"2"	5	0.34746	1	40	"2"	17	0.9078	3.28386	"TEN"	"RANDREG"	"25ms"	"Hit"	0.56034	22
"189"	"2"	5	0.34746	1	44	"2"	11	0.8752	3.28386	"TEN"	"RANDREG"	"25ms"	"Hit"	0.52774	21
"190"	"2"	5	0.34746	1	46	"2"	35	0.8589	3.28386	"TEN"	"RANDREG"	"25ms"	"Hit"	0.51144	20
"191"	"2"	5	0.34746	1	47	"2"	20	0.7356	3.28386	"TEN"	"RANDREG"	"25ms"	"Hit"	0.38814	16
"192"	"2"	5	0.34746	1	48	"2"	26	0.7887	3.28386	"TEN"	"RANDREG"	"25ms"	"Hit"	0.44124	18
"193"	"2"	5	0.34746	1	50	"2"	7	0.7709	3.28386	"TEN"	"RANDREG"	"25ms"	"Hit"	0.42344	17
"194"	"2"	5	0.34746	1	51	"2"	32	0.6669	3.28386	"TEN"	"RANDREG"	"25ms"	"Hit"	0.31944	13
"195"	"2"	5	0.34746	1	53	"2"	18	0.7294	3.28386	"TEN"	"RANDREG"	"25ms"	"Hit"	0.38194	15
"196"	"2"	5	0.34746	1	54	"2"	33	0.7913	3.28386	"TEN"	"RANDREG"	"25ms"	"Hit"	0.44384	18
"197"	"2"	5	0.34746	1	56	"2"	14	0.8623	3.28386	"TEN"	"RANDREG"	"25ms"	"Hit"	0.51484	21
"198"	"2"	5	0.34746	1	57	"2"	12	0.643	3.28386	"TEN"	"RANDREG"	"25ms"	"Hit"	0.29554	12
"199"	"2"	5	0.34746	1	62	"2"	15	0.7778	3.28386	"TEN"	"RANDREG"	"25ms"	"Hit"	0.43034	17
"200"	"2"	5	0.34746	1	65	"2"	6	0.7819	3.28386	"TEN"	"RANDREG"	"25ms"	"Hit"	0.43444	17
"201"	"2"	5	0.34746	1	66	"2"	27	0.7743	3.28386	"TEN"	"RANDREG"	"25ms"	"Hit"	0.42684	17
"202"	"2"	5	0.34746	1	70	"2"	25	0.7613	3.28386	"TEN"	"RANDREG"	"25ms"	"Hit"	0.41384	17
"203"	"2"	5	0.34746	1	71	"2"	23	0.846	3.28386	"TEN"	"RANDREG"	"25ms"	"Hit"	0.49854	20
"204"	"2"	5	0.34746	1	75	"2"	10	0.8714	3.28386	"TEN"	"RANDREG"	"25ms"	"Hit"	0.52394	21
"205"	"2"	5	0.34746	1	80	"2"	29	0.8736	3.28386	"TEN"	"RANDREG"	"25ms"	"Hit"	0.52614	21
"206"	"3"	3	0.32406	1	2	"2"	7	0.968	2.996397	"TEN"	"RANDREG"	"25ms"	"Hit"	0.64394	26
"207"	"3"	3	0.32406	1	3	"2"	17	1.0627	2.996397	"TEN"	"RANDREG"	"25ms"	"Hit"	0.73864	30
"208"	"3"	3	0.32406	1	4	"2"	2	0.8673	2.996397	"TEN"	"RANDREG"	"25ms"	"Hit"	0.54324	22
"209"	"3"	3	0.32406	1	5	"2"	8	1.0196	2.996397	"TEN"	"RANDREG"	"25ms"	"Hit"	0.69554	28
"210"	"3"	3	0.32406	1	8	"2"	28	0.7842	2.996397	"TEN"	"RANDREG"	"25ms"	"Hit"	0.46014	18
"211"	"3"	3	0.32406	1	11	"2"	24	0.6879	2.996397	"TEN"	"RANDREG"	"25ms"	"Hit"	0.36384	15
"212"	"3"	3	0.32406	1	17	"2"	26	0.8541	2.996397	"TEN"	"RANDREG"	"25ms"	"Hit"	0.53004	21
"214"	"3"	3	0.32406	1	34	"2"	19	0.9147	2.996397	"TEN"	"RANDREG"	"25ms"	"Hit"	0.59064	24
"215"	"3"	3	0.32406	1	36	"2"	32	0.8226	2.996397	"TEN"	"RANDREG"	"25ms"	"Hit"	0.49854	20
"216"	"3"	3	0.32406	1	39	"2"	14	0.8537	2.996397	"TEN"	"RANDREG"	"25ms"	"Hit"	0.52964	21
"217"	"3"	3	0.32406	1	40	"2"	29	0.8882	2.996397	"TEN"	"RANDREG"	"25ms"	"Hit"	0.56414	23
"218"	"3"	3	0.32406	1	43	"2"	4	0.8388	2.996397	"TEN"	"RANDREG"	"25ms"	"Hit"	0.51474	21
"219"	"3"	3	0.32406	1	44	"2"	25	0.9872	2.996397	"TEN"	"RANDREG"	"25ms"	"Hit"	0.66314	27
"220"	"3"	3	0.32406	1	45	"2"	21	1.0629	2.996397	"TEN"	"RANDREG"	"25ms"	"Hit"	0.73884	30
"221"	"3"	3	0.32406	1	47	"2"	16	0.8173	2.996397	"TEN"	"RANDREG"	"25ms"	"Hit"	0.49324	20
"222"	"3"	3	0.32406	1	48	"2"	9	1.0755	2.996397	"TEN"	"RANDREG"	"25ms"	"Hit"	0.75144	30
"223"	"3"	3	0.32406	1	49	"2"	3	0.8226	2.996397	"TEN"	"RANDREG"	"25ms"	"Hit"	0.49854	20
"224"	"3"	3	0.32406	1	51	"2"	11	0.6845	2.996397	"TEN"	"RANDREG"	"25ms"	"Hit"	0.36044	14
"226"	"3"	3	0.32406	1	54	"2"	31	0.9799	2.996397	"TEN"	"RANDREG"	"25ms"	"Hit"	0.65584	26
"227"	"3"	3	0.32406	1	55	"2"	20	0.8846	2.996397	"TEN"	"RANDREG"	"25ms"	"Hit"	0.56054	22
"228"	"3"	3	0.32406	1	56	"2"	15	0.959	2.996397	"TEN"	"RANDREG"	"25ms"	"Hit"	0.63494	25
"229"	"3"	3	0.32406	1	57	"2"	12	0.8908	2.996397	"TEN"	"RANDREG"	"25ms"	"Hit"	0.56674	23
"230"	"3"	3	0.32406	1	58	"2"	33	0.8705	2.996397	"TEN"	"RANDREG"	"25ms"	"Hit"	0.54644	22
"231"	"3"	3	0.32406	1	60	"2"	13	1.0619	2.996397	"TEN"	"RANDREG"	"25ms"	"Hit"	0.73784	30
"232"	"3"	3	0.32406	1	61	"2"	30	0.9894	2.996397	"TEN"	"RANDREG"	"25ms"	"Hit"	0.66534	27
"233"	"3"	3	0.32406	1	62	"2"	18	0.8629	2.996397	"TEN"	"RANDREG"	"25ms"	"Hit"	0.53884	22
"234"	"3"	3	0.32406	1	68	"2"	23	0.7573	2.996397	"TEN"	"RANDREG"	"25ms"	"Hit"	0.43324	17
"235"	"3"	3	0.32406	1	69	"2"	22	1.0147	2.996397	"TEN"	"RANDREG"	"25ms"	"Hit"	0.69064	28
"236"	"3"	3	0.32406	1	72	"2"	5	1.0267	2.996397	"TEN"	"RANDREG"	"25ms"	"Hit"	0.70264	28
"237"	"3"	3	0.32406	1	78	"2"	35	0.9233	2.996397	"TEN"	"RANDREG"	"25ms"	"Hit"	0.59924	24
"239"	"3"	3	0.32406	1	80	"2"	10	0.9654	2.996397	"TEN"	"RANDREG"	"25ms"	"Hit"	0.64134	26
"240"	"4"	1	0.36846	1	1	"2"	23	1.0432	4.201367	"TEN"	"RANDREG"	"25ms"	"Hit"	0.67474	27
"241"	"4"	1	0.36846	1	2	"2"	1	1.0278	4.201367	"TEN"	"RANDREG"	"25ms"	"Hit"	0.65934	26
"242"	"4"	1	0.36846	1	3	"2"	16	0.8372	4.201367	"TEN"	"RANDREG"	"25ms"	"Hit"	0.46874	19
"243"	"4"	1	0.36846	1	5	"2"	12	0.987	4.201367	"TEN"	"RANDREG"	"25ms"	"Hit"	0.61854	25
"244"	"4"	1	0.36846	1	11	"2"	34	0.7949	4.201367	"TEN"	"RANDREG"	"25ms"	"Hit"	0.42644	17
"245"	"4"	1	0.36846	1	12	"2"	29	1.0273	4.201367	"TEN"	"RANDREG"	"25ms"	"Hit"	0.65884	26
"246"	"4"	1	0.36846	1	13	"2"	2	0.8766	4.201367	"TEN"	"RANDREG"	"25ms"	"Hit"	0.50814	20
"247"	"4"	1	0.36846	1	14	"2"	28	0.853	4.201367	"TEN"	"RANDREG"	"25ms"	"Hit"	0.48454	19
"248"	"4"	1	0.36846	1	16	"2"	21	0.7013	4.201367	"TEN"	"RANDREG"	"25ms"	"Hit"	0.33284	13
"249"	"4"	1	0.36846	1	21	"2"	20	0.9257	4.201367	"TEN"	"RANDREG"	"25ms"	"Hit"	0.55724	22
"250"	"4"	1	0.36846	1	23	"2"	26	0.9645	4.201367	"TEN"	"RANDREG"	"25ms"	"Hit"	0.59604	24
"251"	"4"	1	0.36846	1	28	"2"	15	0.9137	4.201367	"TEN"	"RANDREG"	"25ms"	"Hit"	0.54524	22
"252"	"4"	1	0.36846	1	32	"2"	10	0.8759	4.201367	"TEN"	"RANDREG"	"25ms"	"Hit"	0.50744	20
"253"	"4"	1	0.36846	1	33	"2"	18	0.8833	4.201367	"TEN"	"RANDREG"	"25ms"	"Hit"	0.51484	21
"254"	"4"	1	0.36846	1	34	"2"	32	0.7928	4.201367	"TEN"	"RANDREG"	"25ms"	"Hit"	0.42434	17
"255"	"4"	1	0.36846	1	36	"2"	19	0.7973	4.201367	"TEN"	"RANDREG"	"25ms"	"Hit"	0.42884	17
"256"	"4"	1	0.36846	1	39	"2"	5	0.9446	4.201367	"TEN"	"RANDREG"	"25ms"	"Hit"	0.57614	23
"257"	"4"	1	0.36846	1	41	"2"	11	0.728	4.201367	"TEN"	"RANDREG"	"25ms"	"Hit"	0.35954	14
"258"	"4"	1	0.36846	1	42	"2"	25	0.9667	4.201367	"TEN"	"RANDREG"	"25ms"	"Hit"	0.59824	24
"259"	"4"	1	0.36846	1	44	"2"	8	1.0081	4.201367	"TEN"	"RANDREG"	"25ms"	"Hit"	0.63964	26
"260"	"4"	1	0.36846	1	45	"2"	13	0.8349	4.201367	"TEN"	"RANDREG"	"25ms"	"Hit"	0.46644	19
"261"	"4"	1	0.36846	1	47	"2"	22	0.9766	4.201367	"TEN"	"RANDREG"	"25ms"	"Hit"	0.60814	24
"262"	"4"	1	0.36846	1	48	"2"	31	0.9329	4.201367	"TEN"	"RANDREG"	"25ms"	"Hit"	0.56444	23
"263"	"4"	1	0.36846	1	49	"2"	24	0.9163	4.201367	"TEN"	"RANDREG"	"25ms"	"Hit"	0.54784	22
"264"	"4"	1	0.36846	1	52	"2"	4	0.7399	4.201367	"TEN"	"RANDREG"	"25ms"	"Hit"	0.37144	15
"265"	"4"	1	0.36846	1	53	"2"	7	0.8142	4.201367	"TEN"	"RANDREG"	"25ms"	"Hit"	0.44574	18
"266"	"4"	1	0.36846	1	57	"2"	3	0.879	4.201367	"TEN"	"RANDREG"	"25ms"	"Hit"	0.51054	20
"267"	"4"	1	0.36846	1	59	"2"	14	0.9262	4.201367	"TEN"	"RANDREG"	"25ms"	"Hit"	0.55774	22
"268"	"4"	1	0.36846	1	60	"2"	27	0.8338	4.201367	"TEN"	"RANDREG"	"25ms"	"Hit"	0.46534	19
"269"	"4"	1	0.36846	1	62	"2"	35	0.8546	4.201367	"TEN"	"RANDREG"	"25ms"	"Hit"	0.48614	19
"270"	"4"	1	0.36846	1	63	"2"	17	0.8841	4.201367	"TEN"	"RANDREG"	"25ms"	"Hit"	0.51564	21
"271"	"4"	1	0.36846	1	65	"2"	9	1.0656	4.201367	"TEN"	"RANDREG"	"25ms"	"Hit"	0.69714	28
"272"	"4"	1	0.36846	1	66	"2"	33	0.8186	4.201367	"TEN"	"RANDREG"	"25ms"	"Hit"	0.45014	18
"273"	"4"	1	0.36846	1	75	"2"	6	0.8955	4.201367	"TEN"	"RANDREG"	"25ms"	"Hit"	0.52704	21
"274"	"4"	1	0.36846	1	78	"2"	30	0.9458	4.201367	"TEN"	"RANDREG"	"25ms"	"Hit"	0.57734	23
"275"	"5"	5	0.37042	1	3	"2"	7	1.0904	3.886256	"TEN"	"RANDREG"	"25ms"	"Hit"	0.71998	29
"276"	"5"	5	0.37042	1	4	"2"	8	0.8434	3.886256	"TEN"	"RANDREG"	"25ms"	"Hit"	0.47298	19
"277"	"5"	5	0.37042	1	6	"2"	16	0.9346	3.886256	"TEN"	"RANDREG"	"25ms"	"Hit"	0.56418	23
"278"	"5"	5	0.37042	1	8	"2"	13	0.8399	3.886256	"TEN"	"RANDREG"	"25ms"	"Hit"	0.46948	19
"279"	"5"	5	0.37042	1	14	"2"	3	0.8848	3.886256	"TEN"	"RANDREG"	"25ms"	"Hit"	0.51438	21
"280"	"5"	5	0.37042	1	16	"2"	34	0.8499	3.886256	"TEN"	"RANDREG"	"25ms"	"Hit"	0.47948	19
"281"	"5"	5	0.37042	1	17	"2"	4	0.8983	3.886256	"TEN"	"RANDREG"	"25ms"	"Hit"	0.52788	21
"282"	"5"	5	0.37042	1	18	"2"	25	0.9498	3.886256	"TEN"	"RANDREG"	"25ms"	"Hit"	0.57938	23
"283"	"5"	5	0.37042	1	19	"2"	29	0.7107	3.886256	"TEN"	"RANDREG"	"25ms"	"Hit"	0.34028	14
"285"	"5"	5	0.37042	1	22	"2"	12	0.829	3.886256	"TEN"	"RANDREG"	"25ms"	"Hit"	0.45858	18
"286"	"5"	5	0.37042	1	24	"2"	26	0.8755	3.886256	"TEN"	"RANDREG"	"25ms"	"Hit"	0.50508	20
"287"	"5"	5	0.37042	1	26	"2"	17	0.8573	3.886256	"TEN"	"RANDREG"	"25ms"	"Hit"	0.48688	19
"288"	"5"	5	0.37042	1	27	"2"	15	0.8066	3.886256	"TEN"	"RANDREG"	"25ms"	"Hit"	0.43618	17
"289"	"5"	5	0.37042	1	29	"2"	20	0.9945	3.886256	"TEN"	"RANDREG"	"25ms"	"Hit"	0.62408	25
"290"	"5"	5	0.37042	1	34	"2"	14	0.7894	3.886256	"TEN"	"RANDREG"	"25ms"	"Hit"	0.41898	17
"291"	"5"	5	0.37042	1	35	"2"	24	0.7541	3.886256	"TEN"	"RANDREG"	"25ms"	"Hit"	0.38368	15
"292"	"5"	5	0.37042	1	36	"2"	30	0.8812	3.886256	"TEN"	"RANDREG"	"25ms"	"Hit"	0.51078	20
"293"	"5"	5	0.37042	1	37	"2"	6	0.7958	3.886256	"TEN"	"RANDREG"	"25ms"	"Hit"	0.42538	17
"294"	"5"	5	0.37042	1	39	"2"	2	0.8264	3.886256	"TEN"	"RANDREG"	"25ms"	"Hit"	0.45598	18
"295"	"5"	5	0.37042	1	41	"2"	21	0.9242	3.886256	"TEN"	"RANDREG"	"25ms"	"Hit"	0.55378	22
"296"	"5"	5	0.37042	1	42	"2"	11	0.6802	3.886256	"TEN"	"RANDREG"	"25ms"	"Hit"	0.30978	12
"297"	"5"	5	0.37042	1	46	"2"	18	0.8688	3.886256	"TEN"	"RANDREG"	"25ms"	"Hit"	0.49838	20
"298"	"5"	5	0.37042	1	50	"2"	28	0.9075	3.886256	"TEN"	"RANDREG"	"25ms"	"Hit"	0.53708	21
"299"	"5"	5	0.37042	1	53	"2"	1	1.011	3.886256	"TEN"	"RANDREG"	"25ms"	"Hit"	0.64058	26
"300"	"5"	5	0.37042	1	54	"2"	33	0.7781	3.886256	"TEN"	"RANDREG"	"25ms"	"Hit"	0.40768	16
"301"	"5"	5	0.37042	1	55	"2"	22	0.9339	3.886256	"TEN"	"RANDREG"	"25ms"	"Hit"	0.56348	23
"302"	"5"	5	0.37042	1	56	"2"	27	1.0211	3.886256	"TEN"	"RANDREG"	"25ms"	"Hit"	0.65068	26
"303"	"5"	5	0.37042	1	58	"2"	9	0.9805	3.886256	"TEN"	"RANDREG"	"25ms"	"Hit"	0.61008	24
"304"	"5"	5	0.37042	1	62	"2"	32	0.8411	3.886256	"TEN"	"RANDREG"	"25ms"	"Hit"	0.47068	19
"305"	"5"	5	0.37042	1	63	"2"	10	0.7234	3.886256	"TEN"	"RANDREG"	"25ms"	"Hit"	0.35298	14
"306"	"5"	5	0.37042	1	66	"2"	23	0.8305	3.886256	"TEN"	"RANDREG"	"25ms"	"Hit"	0.46008	18
"307"	"5"	5	0.37042	1	68	"2"	19	0.7728	3.886256	"TEN"	"RANDREG"	"25ms"	"Hit"	0.40238	16
"308"	"5"	5	0.37042	1	69	"2"	5	0.8865	3.886256	"TEN"	"RANDREG"	"25ms"	"Hit"	0.51608	21
"309"	"5"	5	0.37042	1	72	"2"	31	0.915	3.886256	"TEN"	"RANDREG"	"25ms"	"Hit"	0.54458	22
"311"	"6"	3	0.39472	1	3	"2"	11	0.9848	3.680934	"TEN"	"RANDREG"	"25ms"	"Hit"	0.59008	24
"312"	"6"	3	0.39472	1	4	"2"	19	0.9549	3.680934	"TEN"	"RANDREG"	"25ms"	"Hit"	0.56018	22
"313"	"6"	3	0.39472	1	5	"2"	28	0.9064	3.680934	"TEN"	"RANDREG"	"25ms"	"Hit"	0.51168	20
"314"	"6"	3	0.39472	1	8	"2"	20	0.8209	3.680934	"TEN"	"RANDREG"	"25ms"	"Hit"	0.42618	17
"315"	"6"	3	0.39472	1	11	"2"	7	0.9439	3.680934	"TEN"	"RANDREG"	"25ms"	"Hit"	0.54918	22
"316"	"6"	3	0.39472	1	17	"2"	8	0.8672	3.680934	"TEN"	"RANDREG"	"25ms"	"Hit"	0.47248	19
"317"	"6"	3	0.39472	1	25	"2"	13	0.9063	3.680934	"TEN"	"RANDREG"	"25ms"	"Hit"	0.51158	20
"318"	"6"	3	0.39472	1	26	"2"	17	0.836	3.680934	"TEN"	"RANDREG"	"25ms"	"Hit"	0.44128	18
"319"	"6"	3	0.39472	1	34	"2"	33	1.0625	3.680934	"TEN"	"RANDREG"	"25ms"	"Hit"	0.66778	27
"320"	"6"	3	0.39472	1	36	"2"	10	0.9317	3.680934	"TEN"	"RANDREG"	"25ms"	"Hit"	0.53698	21
"321"	"6"	3	0.39472	1	39	"2"	27	0.9661	3.680934	"TEN"	"RANDREG"	"25ms"	"Hit"	0.57138	23
"322"	"6"	3	0.39472	1	40	"2"	4	0.9235	3.680934	"TEN"	"RANDREG"	"25ms"	"Hit"	0.52878	21
"323"	"6"	3	0.39472	1	43	"2"	14	1.1287	3.680934	"TEN"	"RANDREG"	"25ms"	"Hit"	0.73398	29
"324"	"6"	3	0.39472	1	44	"2"	22	0.8713	3.680934	"TEN"	"RANDREG"	"25ms"	"Hit"	0.47658	19
"325"	"6"	3	0.39472	1	45	"2"	5	1.0146	3.680934	"TEN"	"RANDREG"	"25ms"	"Hit"	0.61988	25
"326"	"6"	3	0.39472	1	47	"2"	21	0.9211	3.680934	"TEN"	"RANDREG"	"25ms"	"Hit"	0.52638	21
"327"	"6"	3	0.39472	1	48	"2"	1	0.7319	3.680934	"TEN"	"RANDREG"	"25ms"	"Hit"	0.33718	13
"328"	"6"	3	0.39472	1	49	"2"	2	0.97	3.680934	"TEN"	"RANDREG"	"25ms"	"Hit"	0.57528	23
"329"	"6"	3	0.39472	1	51	"2"	15	0.8854	3.680934	"TEN"	"RANDREG"	"25ms"	"Hit"	0.49068	20
"330"	"6"	3	0.39472	1	53	"2"	35	0.9809	3.680934	"TEN"	"RANDREG"	"25ms"	"Hit"	0.58618	23
"331"	"6"	3	0.39472	1	54	"2"	16	1.0279	3.680934	"TEN"	"RANDREG"	"25ms"	"Hit"	0.63318	25
"332"	"6"	3	0.39472	1	55	"2"	9	0.7172	3.680934	"TEN"	"RANDREG"	"25ms"	"Hit"	0.32248	13
"333"	"6"	3	0.39472	1	56	"2"	25	0.862	3.680934	"TEN"	"RANDREG"	"25ms"	"Hit"	0.46728	19
"334"	"6"	3	0.39472	1	57	"2"	6	0.941	3.680934	"TEN"	"RANDREG"	"25ms"	"Hit"	0.54628	22
"335"	"6"	3	0.39472	1	58	"2"	26	0.8193	3.680934	"TEN"	"RANDREG"	"25ms"	"Hit"	0.42458	17
"336"	"6"	3	0.39472	1	60	"2"	18	1.0493	3.680934	"TEN"	"RANDREG"	"25ms"	"Hit"	0.65458	26
"337"	"6"	3	0.39472	1	61	"2"	3	0.7693	3.680934	"TEN"	"RANDREG"	"25ms"	"Hit"	0.37458	15
"338"	"6"	3	0.39472	1	62	"2"	34	0.8546	3.680934	"TEN"	"RANDREG"	"25ms"	"Hit"	0.45988	18
"339"	"6"	3	0.39472	1	68	"2"	32	1.125	3.680934	"TEN"	"RANDREG"	"25ms"	"Hit"	0.73028	29
"340"	"6"	3	0.39472	1	69	"2"	29	1.1558	3.680934	"TEN"	"RANDREG"	"25ms"	"Hit"	0.76108	30
"341"	"6"	3	0.39472	1	72	"2"	31	0.7723	3.680934	"TEN"	"RANDREG"	"25ms"	"Hit"	0.37758	15
"342"	"6"	3	0.39472	1	78	"2"	24	0.9974	3.680934	"TEN"	"RANDREG"	"25ms"	"Hit"	0.60268	24
"343"	"6"	3	0.39472	1	79	"2"	12	0.8959	3.680934	"TEN"	"RANDREG"	"25ms"	"Hit"	0.50118	20
"344"	"6"	3	0.39472	1	80	"2"	23	0.8069	3.680934	"TEN"	"RANDREG"	"25ms"	"Hit"	0.41218	16
"346"	"8"	6	0.38818	1	9	"2"	24	1.1167	3.241516	"TEN"	"RANDREG"	"25ms"	"Hit"	0.72852	29
"347"	"8"	6	0.38818	1	14	"2"	31	1.0413	3.241516	"TEN"	"RANDREG"	"25ms"	"Hit"	0.65312	26
"348"	"8"	6	0.38818	1	15	"2"	26	1.018	3.241516	"TEN"	"RANDREG"	"25ms"	"Hit"	0.62982	25
"350"	"8"	6	0.38818	1	20	"2"	13	0.9109	3.241516	"TEN"	"RANDREG"	"25ms"	"Hit"	0.52272	21
"351"	"8"	6	0.38818	1	21	"2"	34	0.8158	3.241516	"TEN"	"RANDREG"	"25ms"	"Hit"	0.42762	17
"352"	"8"	6	0.38818	1	25	"2"	20	0.8439	3.241516	"TEN"	"RANDREG"	"25ms"	"Hit"	0.45572	18
"353"	"8"	6	0.38818	1	27	"2"	30	0.9319	3.241516	"TEN"	"RANDREG"	"25ms"	"Hit"	0.54372	22
"354"	"8"	6	0.38818	1	28	"2"	10	0.9502	3.241516	"TEN"	"RANDREG"	"25ms"	"Hit"	0.56202	22
"355"	"8"	6	0.38818	1	30	"2"	14	1.0325	3.241516	"TEN"	"RANDREG"	"25ms"	"Hit"	0.64432	26
"356"	"8"	6	0.38818	1	31	"2"	19	0.9417	3.241516	"TEN"	"RANDREG"	"25ms"	"Hit"	0.55352	22
"357"	"8"	6	0.38818	1	33	"2"	29	0.9164	3.241516	"TEN"	"RANDREG"	"25ms"	"Hit"	0.52822	21
"358"	"8"	6	0.38818	1	34	"2"	32	0.5855	3.241516	"TEN"	"RANDREG"	"25ms"	"Hit"	0.19732	8
"359"	"8"	6	0.38818	1	37	"2"	11	0.8338	3.241516	"TEN"	"RANDREG"	"25ms"	"Hit"	0.44562	18
"360"	"8"	6	0.38818	1	40	"2"	6	0.7937	3.241516	"TEN"	"RANDREG"	"25ms"	"Hit"	0.40552	16
"361"	"8"	6	0.38818	1	41	"2"	33	0.8837	3.241516	"TEN"	"RANDREG"	"25ms"	"Hit"	0.49552	20
"362"	"8"	6	0.38818	1	42	"2"	17	0.8155	3.241516	"TEN"	"RANDREG"	"25ms"	"Hit"	0.42732	17
"363"	"8"	6	0.38818	1	44	"2"	3	0.9081	3.241516	"TEN"	"RANDREG"	"25ms"	"Hit"	0.51992	21
"364"	"8"	6	0.38818	1	46	"2"	2	0.8463	3.241516	"TEN"	"RANDREG"	"25ms"	"Hit"	0.45812	18
"365"	"8"	6	0.38818	1	50	"2"	18	1.0223	3.241516	"TEN"	"RANDREG"	"25ms"	"Hit"	0.63412	25
"366"	"8"	6	0.38818	1	51	"2"	9	0.8998	3.241516	"TEN"	"RANDREG"	"25ms"	"Hit"	0.51162	20
"367"	"8"	6	0.38818	1	52	"2"	23	0.983	3.241516	"TEN"	"RANDREG"	"25ms"	"Hit"	0.59482	24
"368"	"8"	6	0.38818	1	55	"2"	27	1.0238	3.241516	"TEN"	"RANDREG"	"25ms"	"Hit"	0.63562	25
"369"	"8"	6	0.38818	1	58	"2"	1	0.9464	3.241516	"TEN"	"RANDREG"	"25ms"	"Hit"	0.55822	22
"370"	"8"	6	0.38818	1	59	"2"	16	1.0654	3.241516	"TEN"	"RANDREG"	"25ms"	"Hit"	0.67722	27
"371"	"8"	6	0.38818	1	61	"2"	25	0.6907	3.241516	"TEN"	"RANDREG"	"25ms"	"Hit"	0.30252	12
"372"	"8"	6	0.38818	1	64	"2"	4	0.9423	3.241516	"TEN"	"RANDREG"	"25ms"	"Hit"	0.55412	22
"373"	"8"	6	0.38818	1	65	"2"	22	0.9591	3.241516	"TEN"	"RANDREG"	"25ms"	"Hit"	0.57092	23
"374"	"8"	6	0.38818	1	68	"2"	12	0.7789	3.241516	"TEN"	"RANDREG"	"25ms"	"Hit"	0.39072	16
"375"	"8"	6	0.38818	1	72	"2"	28	0.8277	3.241516	"TEN"	"RANDREG"	"25ms"	"Hit"	0.43952	18
"376"	"8"	6	0.38818	1	73	"2"	15	0.8319	3.241516	"TEN"	"RANDREG"	"25ms"	"Hit"	0.44372	18
"377"	"8"	6	0.38818	1	76	"2"	35	0.8926	3.241516	"TEN"	"RANDREG"	"25ms"	"Hit"	0.50442	20
"378"	"8"	6	0.38818	1	79	"2"	7	0.8692	3.241516	"TEN"	"RANDREG"	"25ms"	"Hit"	0.48102	19
"379"	"9"	4	0.51478	1	4	"2"	8	0.846	3.084385	"TEN"	"RANDREG"	"25ms"	"Hit"	0.33122	13
"380"	"9"	4	0.51478	1	6	"2"	29	0.9731	3.084385	"TEN"	"RANDREG"	"25ms"	"Hit"	0.45832	18
"381"	"9"	4	0.51478	1	8	"2"	18	1.0119	3.084385	"TEN"	"RANDREG"	"25ms"	"Hit"	0.49712	20
"382"	"9"	4	0.51478	1	14	"2"	4	0.8965	3.084385	"TEN"	"RANDREG"	"25ms"	"Hit"	0.38172	15
"384"	"9"	4	0.51478	1	17	"2"	33	1.053	3.084385	"TEN"	"RANDREG"	"25ms"	"Hit"	0.53822	22
"385"	"9"	4	0.51478	1	18	"2"	32	0.9385	3.084385	"TEN"	"RANDREG"	"25ms"	"Hit"	0.42372	17
"386"	"9"	4	0.51478	1	19	"2"	25	0.9744	3.084385	"TEN"	"RANDREG"	"25ms"	"Hit"	0.45962	18
"387"	"9"	4	0.51478	1	20	"2"	20	0.8068	3.084385	"TEN"	"RANDREG"	"25ms"	"Hit"	0.29202	12
"388"	"9"	4	0.51478	1	22	"2"	12	0.8763	3.084385	"TEN"	"RANDREG"	"25ms"	"Hit"	0.36152	14
"389"	"9"	4	0.51478	1	24	"2"	28	0.962	3.084385	"TEN"	"RANDREG"	"25ms"	"Hit"	0.44722	18
"390"	"9"	4	0.51478	1	26	"2"	24	1.0019	3.084385	"TEN"	"RANDREG"	"25ms"	"Hit"	0.48712	19
"391"	"9"	4	0.51478	1	27	"2"	1	0.9205	3.084385	"TEN"	"RANDREG"	"25ms"	"Hit"	0.40572	16
"392"	"9"	4	0.51478	1	29	"2"	30	0.9026	3.084385	"TEN"	"RANDREG"	"25ms"	"Hit"	0.38782	16
"393"	"9"	4	0.51478	1	34	"2"	35	0.89	3.084385	"TEN"	"RANDREG"	"25ms"	"Hit"	0.37522	15
"394"	"9"	4	0.51478	1	35	"2"	26	1.0199	3.084385	"TEN"	"RANDREG"	"25ms"	"Hit"	0.50512	20
"395"	"9"	4	0.51478	1	36	"2"	3	0.9213	3.084385	"TEN"	"RANDREG"	"25ms"	"Hit"	0.40652	16
"398"	"9"	4	0.51478	1	41	"2"	6	0.912	3.084385	"TEN"	"RANDREG"	"25ms"	"Hit"	0.39722	16
"399"	"9"	4	0.51478	1	42	"2"	17	0.9222	3.084385	"TEN"	"RANDREG"	"25ms"	"Hit"	0.40742	16
"400"	"9"	4	0.51478	1	46	"2"	16	0.8424	3.084385	"TEN"	"RANDREG"	"25ms"	"Hit"	0.32762	13
"401"	"9"	4	0.51478	1	50	"2"	31	0.9793	3.084385	"TEN"	"RANDREG"	"25ms"	"Hit"	0.46452	19
"402"	"9"	4	0.51478	1	53	"2"	15	1.0028	3.084385	"TEN"	"RANDREG"	"25ms"	"Hit"	0.48802	20
"403"	"9"	4	0.51478	1	54	"2"	22	0.9016	3.084385	"TEN"	"RANDREG"	"25ms"	"Hit"	0.38682	15
"404"	"9"	4	0.51478	1	55	"2"	2	1.2867	3.084385	"TEN"	"RANDREG"	"25ms"	"Hit"	0.77192	31
"405"	"9"	4	0.51478	1	56	"2"	13	0.8533	3.084385	"TEN"	"RANDREG"	"25ms"	"Hit"	0.33852	14
"407"	"9"	4	0.51478	1	62	"2"	5	0.8211	3.084385	"TEN"	"RANDREG"	"25ms"	"Hit"	0.30632	12
"408"	"9"	4	0.51478	1	63	"2"	21	0.9798	3.084385	"TEN"	"RANDREG"	"25ms"	"Hit"	0.46502	19
"409"	"9"	4	0.51478	1	68	"2"	11	0.8127	3.084385	"TEN"	"RANDREG"	"25ms"	"Hit"	0.29792	12
"410"	"9"	4	0.51478	1	69	"2"	10	0.7754	3.084385	"TEN"	"RANDREG"	"25ms"	"Hit"	0.26062	10
"411"	"9"	4	0.51478	1	72	"2"	14	1.0661	3.084385	"TEN"	"RANDREG"	"25ms"	"Hit"	0.55132	22
"412"	"1"	1	0.48876	1	2	"4"	2	0.6286	3.919928	"TEN"	"STEP"	"25ms"	"Hit"	0.6286	25
"413"	"1"	1	0.48876	1	43	"4"	5	0.4115	3.919928	"TEN"	"STEP"	"25ms"	"Hit"	0.4115	16
"414"	"1"	1	0.48876	1	48	"4"	1	0.6604	3.919928	"TEN"	"STEP"	"25ms"	"Hit"	0.6604	26
"415"	"1"	1	0.48876	1	68	"4"	3	0.3243	3.919928	"TEN"	"STEP"	"25ms"	"Hit"	0.3243	13
"416"	"1"	1	0.48876	1	79	"4"	4	0.419	3.919928	"TEN"	"STEP"	"25ms"	"Hit"	0.419	17
"418"	"10"	2	0.41126	1	15	"4"	3	0.3561	3.604818	"TEN"	"STEP"	"25ms"	"Hit"	0.3561	14
"419"	"10"	2	0.41126	1	18	"4"	5	0.3108	3.604818	"TEN"	"STEP"	"25ms"	"Hit"	0.3108	12
"420"	"10"	2	0.41126	1	23	"4"	4	0.3213	3.604818	"TEN"	"STEP"	"25ms"	"Hit"	0.3213	13
"421"	"10"	2	0.41126	1	73	"4"	2	0.3057	3.604818	"TEN"	"STEP"	"25ms"	"Hit"	0.3057	12
"422"	"11"	6	0.4447	1	12	"4"	4	0.5235	3.886256	"TEN"	"STEP"	"25ms"	"Hit"	0.5235	21
"423"	"11"	6	0.4447	1	19	"4"	1	0.6081	3.886256	"TEN"	"STEP"	"25ms"	"Hit"	0.6081	24
"424"	"11"	6	0.4447	1	36	"4"	2	0.3763	3.886256	"TEN"	"STEP"	"25ms"	"Hit"	0.3763	15
"425"	"11"	6	0.4447	1	45	"4"	3	0.4018	3.886256	"TEN"	"STEP"	"25ms"	"Hit"	0.4018	16
"426"	"11"	6	0.4447	1	61	"4"	5	0.3138	3.886256	"TEN"	"STEP"	"25ms"	"Hit"	0.3138	13
"427"	"12"	4	0.52328	1	1	"4"	1	0.5333	3.886256	"TEN"	"STEP"	"25ms"	"Hit"	0.5333	21
"428"	"12"	4	0.52328	1	21	"4"	5	0.3005	3.886256	"TEN"	"STEP"	"25ms"	"Hit"	0.3005	12
"429"	"12"	4	0.52328	1	25	"4"	2	0.3059	3.886256	"TEN"	"STEP"	"25ms"	"Hit"	0.3059	12
"431"	"12"	4	0.52328	1	75	"4"	3	0.3098	3.886256	"TEN"	"STEP"	"25ms"	"Hit"	0.3098	12
"432"	"13"	1	0.40298	1	7	"4"	1	0.4346	3.680934	"TEN"	"STEP"	"25ms"	"Hit"	0.4346	17
"433"	"13"	1	0.40298	1	15	"4"	5	0.3036	3.680934	"TEN"	"STEP"	"25ms"	"Hit"	0.3036	12
"434"	"13"	1	0.40298	1	18	"4"	4	0.4447	3.680934	"TEN"	"STEP"	"25ms"	"Hit"	0.4447	18
"435"	"13"	1	0.40298	1	23	"4"	2	0.3916	3.680934	"TEN"	"STEP"	"25ms"	"Hit"	0.3916	16
"436"	"13"	1	0.40298	1	73	"4"	3	0.4404	3.680934	"TEN"	"STEP"	"25ms"	"Hit"	0.4404	18
"437"	"2"	5	0.34746	1	16	"4"	4	0.2988	3.28386	"TEN"	"STEP"	"25ms"	"Hit"	0.2988	12
"438"	"2"	5	0.34746	1	20	"4"	2	0.3303	3.28386	"TEN"	"STEP"	"25ms"	"Hit"	0.3303	13
"439"	"2"	5	0.34746	1	29	"4"	3	0.3502	3.28386	"TEN"	"STEP"	"25ms"	"Hit"	0.3502	14
"440"	"2"	5	0.34746	1	35	"4"	5	0.4087	3.28386	"TEN"	"STEP"	"25ms"	"Hit"	0.4087	16
"441"	"2"	5	0.34746	1	61	"4"	1	0.3493	3.28386	"TEN"	"STEP"	"25ms"	"Hit"	0.3493	14
"442"	"3"	3	0.32406	1	7	"4"	1	0.2992	2.996397	"TEN"	"STEP"	"25ms"	"Hit"	0.2992	12
"443"	"3"	3	0.32406	1	15	"4"	3	0.3076	2.996397	"TEN"	"STEP"	"25ms"	"Hit"	0.3076	12
"444"	"3"	3	0.32406	1	18	"4"	2	0.3337	2.996397	"TEN"	"STEP"	"25ms"	"Hit"	0.3337	13
"445"	"3"	3	0.32406	1	23	"4"	4	0.3311	2.996397	"TEN"	"STEP"	"25ms"	"Hit"	0.3311	13
"446"	"3"	3	0.32406	1	73	"4"	5	0.3487	2.996397	"TEN"	"STEP"	"25ms"	"Hit"	0.3487	14
"447"	"4"	1	0.36846	1	8	"4"	4	0.3407	4.201367	"TEN"	"STEP"	"25ms"	"Hit"	0.3407	14
"448"	"4"	1	0.36846	1	19	"4"	1	0.43	4.201367	"TEN"	"STEP"	"25ms"	"Hit"	0.43	17
"449"	"4"	1	0.36846	1	35	"4"	5	0.3268	4.201367	"TEN"	"STEP"	"25ms"	"Hit"	0.3268	13
"450"	"4"	1	0.36846	1	43	"4"	3	0.3576	4.201367	"TEN"	"STEP"	"25ms"	"Hit"	0.3576	14
"451"	"4"	1	0.36846	1	74	"4"	2	0.3872	4.201367	"TEN"	"STEP"	"25ms"	"Hit"	0.3872	15
"452"	"5"	5	0.37042	1	32	"4"	3	0.4797	3.886256	"TEN"	"STEP"	"25ms"	"Hit"	0.4797	19
"453"	"5"	5	0.37042	1	45	"4"	2	0.367	3.886256	"TEN"	"STEP"	"25ms"	"Hit"	0.367	15
"454"	"5"	5	0.37042	1	48	"4"	1	0.3419	3.886256	"TEN"	"STEP"	"25ms"	"Hit"	0.3419	14
"455"	"5"	5	0.37042	1	49	"4"	5	0.2934	3.886256	"TEN"	"STEP"	"25ms"	"Hit"	0.2934	12
"456"	"5"	5	0.37042	1	64	"4"	4	0.3701	3.886256	"TEN"	"STEP"	"25ms"	"Hit"	0.3701	15
"457"	"6"	3	0.39472	1	7	"4"	4	0.5203	3.680934	"TEN"	"STEP"	"25ms"	"Hit"	0.5203	21
"458"	"6"	3	0.39472	1	15	"4"	2	0.3617	3.680934	"TEN"	"STEP"	"25ms"	"Hit"	0.3617	14
"459"	"6"	3	0.39472	1	18	"4"	5	0.2969	3.680934	"TEN"	"STEP"	"25ms"	"Hit"	0.2969	12
"460"	"6"	3	0.39472	1	23	"4"	1	0.3821	3.680934	"TEN"	"STEP"	"25ms"	"Hit"	0.3821	15
"461"	"6"	3	0.39472	1	73	"4"	3	0.4126	3.680934	"TEN"	"STEP"	"25ms"	"Hit"	0.4126	17
"462"	"8"	6	0.38818	1	29	"4"	3	0.3826	3.241516	"TEN"	"STEP"	"25ms"	"Hit"	0.3826	15
"463"	"8"	6	0.38818	1	36	"4"	1	0.4254	3.241516	"TEN"	"STEP"	"25ms"	"Hit"	0.4254	17
"464"	"8"	6	0.38818	1	43	"4"	2	0.3496	3.241516	"TEN"	"STEP"	"25ms"	"Hit"	0.3496	14
"465"	"8"	6	0.38818	1	71	"4"	4	0.3222	3.241516	"TEN"	"STEP"	"25ms"	"Hit"	0.3222	13
"466"	"8"	6	0.38818	1	74	"4"	5	0.4611	3.241516	"TEN"	"STEP"	"25ms"	"Hit"	0.4611	18
"467"	"9"	4	0.51478	1	32	"4"	5	0.4474	3.084385	"TEN"	"STEP"	"25ms"	"Hit"	0.4474	18
"469"	"9"	4	0.51478	1	48	"4"	4	0.5953	3.084385	"TEN"	"STEP"	"25ms"	"Hit"	0.5953	24
"470"	"9"	4	0.51478	1	49	"4"	3	0.3737	3.084385	"TEN"	"STEP"	"25ms"	"Hit"	0.3737	15
"471"	"9"	4	0.51478	1	64	"4"	2	0.3751	3.084385	"TEN"	"STEP"	"25ms"	"Hit"	0.3751	15
"472"	"1"	5	0.39202	2	2	"2"	3	1.263	3.680934	"TEN"	"RANDREG"	"50ms"	"Hit"	0.87098	17
"473"	"1"	5	0.39202	2	4	"2"	18	1.2812	3.680934	"TEN"	"RANDREG"	"50ms"	"Hit"	0.88918	18
"474"	"1"	5	0.39202	2	7	"2"	4	1.301	3.680934	"TEN"	"RANDREG"	"50ms"	"Hit"	0.90898	18
"476"	"1"	5	0.39202	2	10	"2"	26	1.3582	3.680934	"TEN"	"RANDREG"	"50ms"	"Hit"	0.96618	19
"477"	"1"	5	0.39202	2	13	"2"	29	1.4188	3.680934	"TEN"	"RANDREG"	"50ms"	"Hit"	1.02678	21
"478"	"1"	5	0.39202	2	15	"2"	34	1.1959	3.680934	"TEN"	"RANDREG"	"50ms"	"Hit"	0.80388	16
"479"	"1"	5	0.39202	2	17	"2"	24	1.3991	3.680934	"TEN"	"RANDREG"	"50ms"	"Hit"	1.00708	20
"480"	"1"	5	0.39202	2	18	"2"	13	1.2696	3.680934	"TEN"	"RANDREG"	"50ms"	"Hit"	0.87758	18
"481"	"1"	5	0.39202	2	21	"2"	28	1.4398	3.680934	"TEN"	"RANDREG"	"50ms"	"Hit"	1.04778	21
"482"	"1"	5	0.39202	2	22	"2"	5	1.0845	3.680934	"TEN"	"RANDREG"	"50ms"	"Hit"	0.69248	14
"483"	"1"	5	0.39202	2	23	"2"	35	1.3535	3.680934	"TEN"	"RANDREG"	"50ms"	"Hit"	0.96148	19
"484"	"1"	5	0.39202	2	28	"2"	9	1.3331	3.680934	"TEN"	"RANDREG"	"50ms"	"Hit"	0.94108	19
"485"	"1"	5	0.39202	2	33	"2"	2	1.2514	3.680934	"TEN"	"RANDREG"	"50ms"	"Hit"	0.85938	17
"486"	"1"	5	0.39202	2	34	"2"	30	1.1546	3.680934	"TEN"	"RANDREG"	"50ms"	"Hit"	0.76258	15
"487"	"1"	5	0.39202	2	39	"2"	25	1.1811	3.680934	"TEN"	"RANDREG"	"50ms"	"Hit"	0.78908	16
"488"	"1"	5	0.39202	2	40	"2"	27	1.1144	3.680934	"TEN"	"RANDREG"	"50ms"	"Hit"	0.72238	14
"489"	"1"	5	0.39202	2	44	"2"	1	1.2558	3.680934	"TEN"	"RANDREG"	"50ms"	"Hit"	0.86378	17
"490"	"1"	5	0.39202	2	46	"2"	23	1.3128	3.680934	"TEN"	"RANDREG"	"50ms"	"Hit"	0.92078	18
"491"	"1"	5	0.39202	2	47	"2"	15	1.2455	3.680934	"TEN"	"RANDREG"	"50ms"	"Hit"	0.85348	17
"492"	"1"	5	0.39202	2	48	"2"	33	1.1282	3.680934	"TEN"	"RANDREG"	"50ms"	"Hit"	0.73618	15
"493"	"1"	5	0.39202	2	49	"2"	22	1.4883	3.680934	"TEN"	"RANDREG"	"50ms"	"Hit"	1.09628	22
"494"	"1"	5	0.39202	2	50	"2"	20	1.2648	3.680934	"TEN"	"RANDREG"	"50ms"	"Hit"	0.87278	17
"495"	"1"	5	0.39202	2	51	"2"	11	1.4896	3.680934	"TEN"	"RANDREG"	"50ms"	"Hit"	1.09758	22
"496"	"1"	5	0.39202	2	53	"2"	31	1.4628	3.680934	"TEN"	"RANDREG"	"50ms"	"Hit"	1.07078	21
"498"	"1"	5	0.39202	2	56	"2"	17	1.4824	3.680934	"TEN"	"RANDREG"	"50ms"	"Hit"	1.09038	22
"499"	"1"	5	0.39202	2	57	"2"	16	1.1113	3.680934	"TEN"	"RANDREG"	"50ms"	"Hit"	0.71928	14
"500"	"1"	5	0.39202	2	62	"2"	14	1.3185	3.680934	"TEN"	"RANDREG"	"50ms"	"Hit"	0.92648	19
"501"	"1"	5	0.39202	2	65	"2"	7	1.3889	3.680934	"TEN"	"RANDREG"	"50ms"	"Hit"	0.99688	20
"502"	"1"	5	0.39202	2	66	"2"	6	1.2497	3.680934	"TEN"	"RANDREG"	"50ms"	"Hit"	0.85768	17
"503"	"1"	5	0.39202	2	70	"2"	19	1.7154	3.680934	"TEN"	"RANDREG"	"50ms"	"Hit"	1.32338	26
"504"	"1"	5	0.39202	2	71	"2"	21	1.3171	3.680934	"TEN"	"RANDREG"	"50ms"	"Hit"	0.92508	19
"505"	"1"	5	0.39202	2	75	"2"	10	1.385	3.680934	"TEN"	"RANDREG"	"50ms"	"Hit"	0.99298	20
"506"	"1"	5	0.39202	2	80	"2"	12	1.3607	3.680934	"TEN"	"RANDREG"	"50ms"	"Hit"	0.96868	19
"507"	"10"	4	0.35834	2	3	"2"	3	1.251	3.522954	"TEN"	"RANDREG"	"50ms"	"Hit"	0.89266	18
"508"	"10"	4	0.35834	2	4	"2"	11	1.3094	3.522954	"TEN"	"RANDREG"	"50ms"	"Hit"	0.95106	19
"509"	"10"	4	0.35834	2	6	"2"	31	1.3291	3.522954	"TEN"	"RANDREG"	"50ms"	"Hit"	0.97076	19
"510"	"10"	4	0.35834	2	8	"2"	17	1.3953	3.522954	"TEN"	"RANDREG"	"50ms"	"Hit"	1.03696	21
"511"	"10"	4	0.35834	2	14	"2"	35	1.1943	3.522954	"TEN"	"RANDREG"	"50ms"	"Hit"	0.83596	17
"512"	"10"	4	0.35834	2	16	"2"	13	0.9031	3.522954	"TEN"	"RANDREG"	"50ms"	"Hit"	0.54476	11
"513"	"10"	4	0.35834	2	17	"2"	6	1.3284	3.522954	"TEN"	"RANDREG"	"50ms"	"Hit"	0.97006	19
"514"	"10"	4	0.35834	2	18	"2"	10	1.1957	3.522954	"TEN"	"RANDREG"	"50ms"	"Hit"	0.83736	17
"515"	"10"	4	0.35834	2	19	"2"	21	1.326	3.522954	"TEN"	"RANDREG"	"50ms"	"Hit"	0.96766	19
"516"	"10"	4	0.35834	2	20	"2"	28	1.1083	3.522954	"TEN"	"RANDREG"	"50ms"	"Hit"	0.74996	15
"517"	"10"	4	0.35834	2	22	"2"	24	1.1887	3.522954	"TEN"	"RANDREG"	"50ms"	"Hit"	0.83036	17
"518"	"10"	4	0.35834	2	24	"2"	4	1.0076	3.522954	"TEN"	"RANDREG"	"50ms"	"Hit"	0.64926	13
"519"	"10"	4	0.35834	2	26	"2"	2	1.2822	3.522954	"TEN"	"RANDREG"	"50ms"	"Hit"	0.92386	18
"520"	"10"	4	0.35834	2	27	"2"	5	1.5197	3.522954	"TEN"	"RANDREG"	"50ms"	"Hit"	1.16136	23
"521"	"10"	4	0.35834	2	29	"2"	25	1.6015	3.522954	"TEN"	"RANDREG"	"50ms"	"Hit"	1.24316	25
"522"	"10"	4	0.35834	2	34	"2"	33	1.2401	3.522954	"TEN"	"RANDREG"	"50ms"	"Hit"	0.88176	18
"523"	"10"	4	0.35834	2	35	"2"	16	1.3697	3.522954	"TEN"	"RANDREG"	"50ms"	"Hit"	1.01136	20
"524"	"10"	4	0.35834	2	36	"2"	7	1.3052	3.522954	"TEN"	"RANDREG"	"50ms"	"Hit"	0.94686	19
"525"	"10"	4	0.35834	2	37	"2"	20	1.3554	3.522954	"TEN"	"RANDREG"	"50ms"	"Hit"	0.99706	20
"526"	"10"	4	0.35834	2	39	"2"	18	1.1739	3.522954	"TEN"	"RANDREG"	"50ms"	"Hit"	0.81556	16
"527"	"10"	4	0.35834	2	41	"2"	29	1.0341	3.522954	"TEN"	"RANDREG"	"50ms"	"Hit"	0.67576	14
"528"	"10"	4	0.35834	2	42	"2"	22	1.2765	3.522954	"TEN"	"RANDREG"	"50ms"	"Hit"	0.91816	18
"529"	"10"	4	0.35834	2	46	"2"	32	1.5469	3.522954	"TEN"	"RANDREG"	"50ms"	"Hit"	1.18856	24
"531"	"10"	4	0.35834	2	53	"2"	15	1.1794	3.522954	"TEN"	"RANDREG"	"50ms"	"Hit"	0.82106	16
"532"	"10"	4	0.35834	2	54	"2"	12	1.2175	3.522954	"TEN"	"RANDREG"	"50ms"	"Hit"	0.85916	17
"533"	"10"	4	0.35834	2	55	"2"	19	1.2564	3.522954	"TEN"	"RANDREG"	"50ms"	"Hit"	0.89806	18
"534"	"10"	4	0.35834	2	56	"2"	30	1.0005	3.522954	"TEN"	"RANDREG"	"50ms"	"Hit"	0.64216	13
"535"	"10"	4	0.35834	2	58	"2"	23	1.31	3.522954	"TEN"	"RANDREG"	"50ms"	"Hit"	0.95166	19
"536"	"10"	4	0.35834	2	62	"2"	34	1.2173	3.522954	"TEN"	"RANDREG"	"50ms"	"Hit"	0.85896	17
"537"	"10"	4	0.35834	2	63	"2"	8	1.3502	3.522954	"TEN"	"RANDREG"	"50ms"	"Hit"	0.99186	20
"538"	"10"	4	0.35834	2	66	"2"	1	0.9362	3.522954	"TEN"	"RANDREG"	"50ms"	"Hit"	0.57786	12
"539"	"10"	4	0.35834	2	68	"2"	14	1.111	3.522954	"TEN"	"RANDREG"	"50ms"	"Hit"	0.75266	15
"540"	"10"	4	0.35834	2	69	"2"	27	1.1877	3.522954	"TEN"	"RANDREG"	"50ms"	"Hit"	0.82936	17
"541"	"10"	4	0.35834	2	72	"2"	9	1.2343	3.522954	"TEN"	"RANDREG"	"50ms"	"Hit"	0.87596	18
"542"	"11"	2	0.47288	2	1	"2"	6	1.4572	3.680934	"TEN"	"RANDREG"	"50ms"	"Hit"	0.98432	20
"543"	"11"	2	0.47288	2	3	"2"	8	1.3431	3.680934	"TEN"	"RANDREG"	"50ms"	"Hit"	0.87022	17
"544"	"11"	2	0.47288	2	7	"2"	33	1.6208	3.680934	"TEN"	"RANDREG"	"50ms"	"Hit"	1.14792	23
"546"	"11"	2	0.47288	2	10	"2"	22	1.4163	3.680934	"TEN"	"RANDREG"	"50ms"	"Hit"	0.94342	19
"547"	"11"	2	0.47288	2	11	"2"	29	1.1946	3.680934	"TEN"	"RANDREG"	"50ms"	"Hit"	0.72172	14
"548"	"11"	2	0.47288	2	13	"2"	21	1.4617	3.680934	"TEN"	"RANDREG"	"50ms"	"Hit"	0.98882	20
"549"	"11"	2	0.47288	2	14	"2"	11	1.4153	3.680934	"TEN"	"RANDREG"	"50ms"	"Hit"	0.94242	19
"550"	"11"	2	0.47288	2	16	"2"	16	1.4666	3.680934	"TEN"	"RANDREG"	"50ms"	"Hit"	0.99372	20
"551"	"11"	2	0.47288	2	18	"2"	19	1.6881	3.680934	"TEN"	"RANDREG"	"50ms"	"Hit"	1.21522	24
"552"	"11"	2	0.47288	2	21	"2"	12	1.6775	3.680934	"TEN"	"RANDREG"	"50ms"	"Hit"	1.20462	24
"553"	"11"	2	0.47288	2	22	"2"	28	1.4645	3.680934	"TEN"	"RANDREG"	"50ms"	"Hit"	0.99162	20
"554"	"11"	2	0.47288	2	23	"2"	25	1.5652	3.680934	"TEN"	"RANDREG"	"50ms"	"Hit"	1.09232	22
"555"	"11"	2	0.47288	2	24	"2"	13	1.478	3.680934	"TEN"	"RANDREG"	"50ms"	"Hit"	1.00512	20
"556"	"11"	2	0.47288	2	26	"2"	20	1.8386	3.680934	"TEN"	"RANDREG"	"50ms"	"Hit"	1.36572	27
"557"	"11"	2	0.47288	2	27	"2"	3	1.49	3.680934	"TEN"	"RANDREG"	"50ms"	"Hit"	1.01712	20
"558"	"11"	2	0.47288	2	28	"2"	7	1.2918	3.680934	"TEN"	"RANDREG"	"50ms"	"Hit"	0.81892	16
"559"	"11"	2	0.47288	2	29	"2"	31	1.4376	3.680934	"TEN"	"RANDREG"	"50ms"	"Hit"	0.96472	19
"560"	"11"	2	0.47288	2	32	"2"	26	1.3506	3.680934	"TEN"	"RANDREG"	"50ms"	"Hit"	0.87772	18
"561"	"11"	2	0.47288	2	33	"2"	32	1.4582	3.680934	"TEN"	"RANDREG"	"50ms"	"Hit"	0.98532	20
"562"	"11"	2	0.47288	2	37	"2"	17	1.6771	3.680934	"TEN"	"RANDREG"	"50ms"	"Hit"	1.20422	24
"563"	"11"	2	0.47288	2	38	"2"	23	1.44	3.680934	"TEN"	"RANDREG"	"50ms"	"Hit"	0.96712	19
"565"	"11"	2	0.47288	2	46	"2"	10	1.5786	3.680934	"TEN"	"RANDREG"	"50ms"	"Hit"	1.10572	22
"566"	"11"	2	0.47288	2	47	"2"	5	1.5881	3.680934	"TEN"	"RANDREG"	"50ms"	"Hit"	1.11522	22
"567"	"11"	2	0.47288	2	48	"2"	35	1.7219	3.680934	"TEN"	"RANDREG"	"50ms"	"Hit"	1.24902	25
"568"	"11"	2	0.47288	2	51	"2"	1	1.2415	3.680934	"TEN"	"RANDREG"	"50ms"	"Hit"	0.76862	15
"569"	"11"	2	0.47288	2	53	"2"	9	1.5062	3.680934	"TEN"	"RANDREG"	"50ms"	"Hit"	1.03332	21
"570"	"11"	2	0.47288	2	61	"2"	15	1.3213	3.680934	"TEN"	"RANDREG"	"50ms"	"Hit"	0.84842	17
"571"	"11"	2	0.47288	2	63	"2"	24	1.5847	3.680934	"TEN"	"RANDREG"	"50ms"	"Hit"	1.11182	22
"572"	"11"	2	0.47288	2	66	"2"	4	1.4286	3.680934	"TEN"	"RANDREG"	"50ms"	"Hit"	0.95572	19
"573"	"11"	2	0.47288	2	67	"2"	27	1.5101	3.680934	"TEN"	"RANDREG"	"50ms"	"Hit"	1.03722	21
"574"	"11"	2	0.47288	2	75	"2"	14	1.3393	3.680934	"TEN"	"RANDREG"	"50ms"	"Hit"	0.86642	17
"575"	"11"	2	0.47288	2	76	"2"	2	1.4775	3.680934	"TEN"	"RANDREG"	"50ms"	"Hit"	1.00462	20
"576"	"11"	2	0.47288	2	80	"2"	18	1.4678	3.680934	"TEN"	"RANDREG"	"50ms"	"Hit"	0.99492	20
"577"	"12"	6	0.29824	2	1	"2"	5	1.1185	4.482805	"TEN"	"RANDREG"	"50ms"	"Hit"	0.82026	16
"578"	"12"	6	0.29824	2	4	"2"	23	1.3656	4.482805	"TEN"	"RANDREG"	"50ms"	"Hit"	1.06736	21
"579"	"12"	6	0.29824	2	6	"2"	30	1.422	4.482805	"TEN"	"RANDREG"	"50ms"	"Hit"	1.12376	22
"580"	"12"	6	0.29824	2	7	"2"	12	1.4853	4.482805	"TEN"	"RANDREG"	"50ms"	"Hit"	1.18706	24
"581"	"12"	6	0.29824	2	8	"2"	35	1.6675	4.482805	"TEN"	"RANDREG"	"50ms"	"Hit"	1.36926	27
"582"	"12"	6	0.29824	2	9	"2"	34	1.4625	4.482805	"TEN"	"RANDREG"	"50ms"	"Hit"	1.16426	23
"583"	"12"	6	0.29824	2	11	"2"	21	1.2549	4.482805	"TEN"	"RANDREG"	"50ms"	"Hit"	0.95666	19
"584"	"12"	6	0.29824	2	13	"2"	26	1.1529	4.482805	"TEN"	"RANDREG"	"50ms"	"Hit"	0.85466	17
"585"	"12"	6	0.29824	2	16	"2"	14	1.4371	4.482805	"TEN"	"RANDREG"	"50ms"	"Hit"	1.13886	23
"586"	"12"	6	0.29824	2	17	"2"	29	1.3257	4.482805	"TEN"	"RANDREG"	"50ms"	"Hit"	1.02746	21
"588"	"12"	6	0.29824	2	22	"2"	11	1.4509	4.482805	"TEN"	"RANDREG"	"50ms"	"Hit"	1.15266	23
"589"	"12"	6	0.29824	2	23	"2"	2	1.1026	4.482805	"TEN"	"RANDREG"	"50ms"	"Hit"	0.80436	16
"591"	"12"	6	0.29824	2	31	"2"	9	1.1606	4.482805	"TEN"	"RANDREG"	"50ms"	"Hit"	0.86236	17
"592"	"12"	6	0.29824	2	35	"2"	31	1.4761	4.482805	"TEN"	"RANDREG"	"50ms"	"Hit"	1.17786	24
"593"	"12"	6	0.29824	2	42	"2"	10	1.0977	4.482805	"TEN"	"RANDREG"	"50ms"	"Hit"	0.79946	16
"594"	"12"	6	0.29824	2	43	"2"	18	1.3125	4.482805	"TEN"	"RANDREG"	"50ms"	"Hit"	1.01426	20
"595"	"12"	6	0.29824	2	47	"2"	22	1.1673	4.482805	"TEN"	"RANDREG"	"50ms"	"Hit"	0.86906	17
"596"	"12"	6	0.29824	2	49	"2"	8	1.1342	4.482805	"TEN"	"RANDREG"	"50ms"	"Hit"	0.83596	17
"597"	"12"	6	0.29824	2	50	"2"	25	1.2413	4.482805	"TEN"	"RANDREG"	"50ms"	"Hit"	0.94306	19
"598"	"12"	6	0.29824	2	51	"2"	6	1.2792	4.482805	"TEN"	"RANDREG"	"50ms"	"Hit"	0.98096	20
"599"	"12"	6	0.29824	2	54	"2"	33	1.1071	4.482805	"TEN"	"RANDREG"	"50ms"	"Hit"	0.80886	16
"600"	"12"	6	0.29824	2	56	"2"	27	1.3714	4.482805	"TEN"	"RANDREG"	"50ms"	"Hit"	1.07316	21
"601"	"12"	6	0.29824	2	57	"2"	7	1.2108	4.482805	"TEN"	"RANDREG"	"50ms"	"Hit"	0.91256	18
"602"	"12"	6	0.29824	2	58	"2"	28	1.4738	4.482805	"TEN"	"RANDREG"	"50ms"	"Hit"	1.17556	24
"603"	"12"	6	0.29824	2	60	"2"	16	1.4515	4.482805	"TEN"	"RANDREG"	"50ms"	"Hit"	1.15326	23
"604"	"12"	6	0.29824	2	62	"2"	20	1.5429	4.482805	"TEN"	"RANDREG"	"50ms"	"Hit"	1.24466	25
"605"	"12"	6	0.29824	2	67	"2"	32	1.2456	4.482805	"TEN"	"RANDREG"	"50ms"	"Hit"	0.94736	19
"606"	"12"	6	0.29824	2	68	"2"	24	1.1223	4.482805	"TEN"	"RANDREG"	"50ms"	"Hit"	0.82406	16
"607"	"12"	6	0.29824	2	74	"2"	15	1.5691	4.482805	"TEN"	"RANDREG"	"50ms"	"Hit"	1.27086	25
"609"	"12"	6	0.29824	2	78	"2"	4	1.3613	4.482805	"TEN"	"RANDREG"	"50ms"	"Hit"	1.06306	21
"610"	"12"	6	0.29824	2	79	"2"	1	1.193	4.482805	"TEN"	"RANDREG"	"50ms"	"Hit"	0.89476	18
"611"	"12"	6	0.29824	2	80	"2"	13	1.3326	4.482805	"TEN"	"RANDREG"	"50ms"	"Hit"	1.03436	21
"612"	"13"	5	0.32328	2	5	"2"	8	1.4643	4.201367	"TEN"	"RANDREG"	"50ms"	"Hit"	1.14102	23
"613"	"13"	5	0.32328	2	8	"2"	2	1.4346	4.201367	"TEN"	"RANDREG"	"50ms"	"Hit"	1.11132	22
"614"	"13"	5	0.32328	2	9	"2"	14	1.3646	4.201367	"TEN"	"RANDREG"	"50ms"	"Hit"	1.04132	21
"615"	"13"	5	0.32328	2	14	"2"	25	1.3593	4.201367	"TEN"	"RANDREG"	"50ms"	"Hit"	1.03602	21
"616"	"13"	5	0.32328	2	15	"2"	11	1.2718	4.201367	"TEN"	"RANDREG"	"50ms"	"Hit"	0.94852	19
"617"	"13"	5	0.32328	2	16	"2"	1	1.2713	4.201367	"TEN"	"RANDREG"	"50ms"	"Hit"	0.94802	19
"618"	"13"	5	0.32328	2	20	"2"	3	1.1882	4.201367	"TEN"	"RANDREG"	"50ms"	"Hit"	0.86492	17
"619"	"13"	5	0.32328	2	21	"2"	35	1.5704	4.201367	"TEN"	"RANDREG"	"50ms"	"Hit"	1.24712	25
"620"	"13"	5	0.32328	2	25	"2"	32	1.624	4.201367	"TEN"	"RANDREG"	"50ms"	"Hit"	1.30072	26
"621"	"13"	5	0.32328	2	27	"2"	26	1.5921	4.201367	"TEN"	"RANDREG"	"50ms"	"Hit"	1.26882	25
"622"	"13"	5	0.32328	2	28	"2"	9	1.2293	4.201367	"TEN"	"RANDREG"	"50ms"	"Hit"	0.90602	18
"623"	"13"	5	0.32328	2	30	"2"	31	1.0303	4.201367	"TEN"	"RANDREG"	"50ms"	"Hit"	0.70702	14
"624"	"13"	5	0.32328	2	31	"2"	16	1.2612	4.201367	"TEN"	"RANDREG"	"50ms"	"Hit"	0.93792	19
"625"	"13"	5	0.32328	2	33	"2"	7	1.3588	4.201367	"TEN"	"RANDREG"	"50ms"	"Hit"	1.03552	21
"626"	"13"	5	0.32328	2	34	"2"	21	1.3195	4.201367	"TEN"	"RANDREG"	"50ms"	"Hit"	0.99622	20
"627"	"13"	5	0.32328	2	37	"2"	15	1.1137	4.201367	"TEN"	"RANDREG"	"50ms"	"Hit"	0.79042	16
"628"	"13"	5	0.32328	2	40	"2"	13	1.3902	4.201367	"TEN"	"RANDREG"	"50ms"	"Hit"	1.06692	21
"629"	"13"	5	0.32328	2	41	"2"	23	1.3411	4.201367	"TEN"	"RANDREG"	"50ms"	"Hit"	1.01782	20
"630"	"13"	5	0.32328	2	42	"2"	22	1.3709	4.201367	"TEN"	"RANDREG"	"50ms"	"Hit"	1.04762	21
"631"	"13"	5	0.32328	2	44	"2"	5	1.1734	4.201367	"TEN"	"RANDREG"	"50ms"	"Hit"	0.85012	17
"632"	"13"	5	0.32328	2	46	"2"	19	1.1018	4.201367	"TEN"	"RANDREG"	"50ms"	"Hit"	0.77852	16
"633"	"13"	5	0.32328	2	50	"2"	6	1.1793	4.201367	"TEN"	"RANDREG"	"50ms"	"Hit"	0.85602	17
"634"	"13"	5	0.32328	2	51	"2"	4	1.339	4.201367	"TEN"	"RANDREG"	"50ms"	"Hit"	1.01572	20
"635"	"13"	5	0.32328	2	52	"2"	28	1.2751	4.201367	"TEN"	"RANDREG"	"50ms"	"Hit"	0.95182	19
"636"	"13"	5	0.32328	2	55	"2"	30	0.981	4.201367	"TEN"	"RANDREG"	"50ms"	"Hit"	0.65772	13
"637"	"13"	5	0.32328	2	58	"2"	17	1.4349	4.201367	"TEN"	"RANDREG"	"50ms"	"Hit"	1.11162	22
"638"	"13"	5	0.32328	2	59	"2"	20	1.095	4.201367	"TEN"	"RANDREG"	"50ms"	"Hit"	0.77172	15
"639"	"13"	5	0.32328	2	61	"2"	12	1.4241	4.201367	"TEN"	"RANDREG"	"50ms"	"Hit"	1.10082	22
"640"	"13"	5	0.32328	2	64	"2"	27	1.145	4.201367	"TEN"	"RANDREG"	"50ms"	"Hit"	0.82172	16
"642"	"13"	5	0.32328	2	68	"2"	10	1.2896	4.201367	"TEN"	"RANDREG"	"50ms"	"Hit"	0.96632	19
"643"	"13"	5	0.32328	2	72	"2"	18	1.2842	4.201367	"TEN"	"RANDREG"	"50ms"	"Hit"	0.96092	19
"644"	"13"	5	0.32328	2	73	"2"	24	1.4228	4.201367	"TEN"	"RANDREG"	"50ms"	"Hit"	1.09952	22
"645"	"13"	5	0.32328	2	76	"2"	34	1.1887	4.201367	"TEN"	"RANDREG"	"50ms"	"Hit"	0.86542	17
"646"	"13"	5	0.32328	2	79	"2"	33	1.4415	4.201367	"TEN"	"RANDREG"	"50ms"	"Hit"	1.11822	22
"647"	"2"	3	0.36366	2	1	"2"	12	1.4799	3.680934	"TEN"	"RANDREG"	"50ms"	"Hit"	1.11624	22
"648"	"2"	3	0.36366	2	2	"2"	7	1.0381	3.680934	"TEN"	"RANDREG"	"50ms"	"Hit"	0.67444	13
"649"	"2"	3	0.36366	2	3	"2"	4	1.4347	3.680934	"TEN"	"RANDREG"	"50ms"	"Hit"	1.07104	21
"650"	"2"	3	0.36366	2	6	"2"	33	1.1317	3.680934	"TEN"	"RANDREG"	"50ms"	"Hit"	0.76804	15
"651"	"2"	3	0.36366	2	9	"2"	9	1.3354	3.680934	"TEN"	"RANDREG"	"50ms"	"Hit"	0.97174	19
"652"	"2"	3	0.36366	2	10	"2"	6	1.0984	3.680934	"TEN"	"RANDREG"	"50ms"	"Hit"	0.73474	15
"653"	"2"	3	0.36366	2	12	"2"	17	1.2107	3.680934	"TEN"	"RANDREG"	"50ms"	"Hit"	0.84704	17
"654"	"2"	3	0.36366	2	14	"2"	23	1.6262	3.680934	"TEN"	"RANDREG"	"50ms"	"Hit"	1.26254	25
"655"	"2"	3	0.36366	2	15	"2"	20	1.2641	3.680934	"TEN"	"RANDREG"	"50ms"	"Hit"	0.90044	18
"656"	"2"	3	0.36366	2	17	"2"	29	1.4756	3.680934	"TEN"	"RANDREG"	"50ms"	"Hit"	1.11194	22
"657"	"2"	3	0.36366	2	19	"2"	11	1.2244	3.680934	"TEN"	"RANDREG"	"50ms"	"Hit"	0.86074	17
"658"	"2"	3	0.36366	2	23	"2"	16	1.4242	3.680934	"TEN"	"RANDREG"	"50ms"	"Hit"	1.06054	21
"659"	"2"	3	0.36366	2	26	"2"	25	1.0295	3.680934	"TEN"	"RANDREG"	"50ms"	"Hit"	0.66584	13
"660"	"2"	3	0.36366	2	28	"2"	35	1.1722	3.680934	"TEN"	"RANDREG"	"50ms"	"Hit"	0.80854	16
"661"	"2"	3	0.36366	2	32	"2"	34	1.5684	3.680934	"TEN"	"RANDREG"	"50ms"	"Hit"	1.20474	24
"662"	"2"	3	0.36366	2	35	"2"	5	1.1951	3.680934	"TEN"	"RANDREG"	"50ms"	"Hit"	0.83144	17
"663"	"2"	3	0.36366	2	37	"2"	32	1.4242	3.680934	"TEN"	"RANDREG"	"50ms"	"Hit"	1.06054	21
"664"	"2"	3	0.36366	2	43	"2"	2	1.4409	3.680934	"TEN"	"RANDREG"	"50ms"	"Hit"	1.07724	22
"665"	"2"	3	0.36366	2	44	"2"	15	1.3914	3.680934	"TEN"	"RANDREG"	"50ms"	"Hit"	1.02774	21
"666"	"2"	3	0.36366	2	46	"2"	31	1.1384	3.680934	"TEN"	"RANDREG"	"50ms"	"Hit"	0.77474	15
"667"	"2"	3	0.36366	2	48	"2"	21	1.3169	3.680934	"TEN"	"RANDREG"	"50ms"	"Hit"	0.95324	19
"669"	"2"	3	0.36366	2	54	"2"	30	1.2542	3.680934	"TEN"	"RANDREG"	"50ms"	"Hit"	0.89054	18
"670"	"2"	3	0.36366	2	56	"2"	19	1.226	3.680934	"TEN"	"RANDREG"	"50ms"	"Hit"	0.86234	17
"671"	"2"	3	0.36366	2	59	"2"	8	1.1695	3.680934	"TEN"	"RANDREG"	"50ms"	"Hit"	0.80584	16
"672"	"2"	3	0.36366	2	61	"2"	13	1.5661	3.680934	"TEN"	"RANDREG"	"50ms"	"Hit"	1.20244	24
"673"	"2"	3	0.36366	2	64	"2"	22	1.1814	3.680934	"TEN"	"RANDREG"	"50ms"	"Hit"	0.81774	16
"674"	"2"	3	0.36366	2	66	"2"	28	0.9456	3.680934	"TEN"	"RANDREG"	"50ms"	"Hit"	0.58194	12
"675"	"2"	3	0.36366	2	67	"2"	18	0.9914	3.680934	"TEN"	"RANDREG"	"50ms"	"Hit"	0.62774	13
"676"	"2"	3	0.36366	2	71	"2"	3	1.2017	3.680934	"TEN"	"RANDREG"	"50ms"	"Hit"	0.83804	17
"677"	"2"	3	0.36366	2	72	"2"	27	1.0186	3.680934	"TEN"	"RANDREG"	"50ms"	"Hit"	0.65494	13
"678"	"2"	3	0.36366	2	74	"2"	24	1.0613	3.680934	"TEN"	"RANDREG"	"50ms"	"Hit"	0.69764	14
"679"	"2"	3	0.36366	2	76	"2"	14	0.8935	3.680934	"TEN"	"RANDREG"	"50ms"	"Hit"	0.52984	11
"680"	"2"	3	0.36366	2	77	"2"	1	1.1189	3.680934	"TEN"	"RANDREG"	"50ms"	"Hit"	0.75524	15
"681"	"2"	3	0.36366	2	80	"2"	26	1.3233	3.680934	"TEN"	"RANDREG"	"50ms"	"Hit"	0.95964	19
"682"	"3"	1	0.31552	2	1	"2"	10	1.5128	3.399495	"TEN"	"RANDREG"	"50ms"	"Hit"	1.19728	24
"683"	"3"	1	0.31552	2	2	"2"	2	1.5044	3.399495	"TEN"	"RANDREG"	"50ms"	"Hit"	1.18888	24
"684"	"3"	1	0.31552	2	3	"2"	22	1.626	3.399495	"TEN"	"RANDREG"	"50ms"	"Hit"	1.31048	26
"685"	"3"	1	0.31552	2	5	"2"	18	1.4189	3.399495	"TEN"	"RANDREG"	"50ms"	"Hit"	1.10338	22
"686"	"3"	1	0.31552	2	11	"2"	14	1.4065	3.399495	"TEN"	"RANDREG"	"50ms"	"Hit"	1.09098	22
"687"	"3"	1	0.31552	2	12	"2"	31	1.5368	3.399495	"TEN"	"RANDREG"	"50ms"	"Hit"	1.22128	24
"688"	"3"	1	0.31552	2	13	"2"	24	1.4306	3.399495	"TEN"	"RANDREG"	"50ms"	"Hit"	1.11508	22
"689"	"3"	1	0.31552	2	14	"2"	20	1.5057	3.399495	"TEN"	"RANDREG"	"50ms"	"Hit"	1.19018	24
"690"	"3"	1	0.31552	2	16	"2"	19	1.3502	3.399495	"TEN"	"RANDREG"	"50ms"	"Hit"	1.03468	21
"691"	"3"	1	0.31552	2	21	"2"	12	1.3096	3.399495	"TEN"	"RANDREG"	"50ms"	"Hit"	0.99408	20
"692"	"3"	1	0.31552	2	28	"2"	6	1.2819	3.399495	"TEN"	"RANDREG"	"50ms"	"Hit"	0.96638	19
"693"	"3"	1	0.31552	2	32	"2"	30	1.2943	3.399495	"TEN"	"RANDREG"	"50ms"	"Hit"	0.97878	20
"694"	"3"	1	0.31552	2	33	"2"	25	1.6249	3.399495	"TEN"	"RANDREG"	"50ms"	"Hit"	1.30938	26
"695"	"3"	1	0.31552	2	34	"2"	26	1.6006	3.399495	"TEN"	"RANDREG"	"50ms"	"Hit"	1.28508	26
"696"	"3"	1	0.31552	2	36	"2"	27	1.4568	3.399495	"TEN"	"RANDREG"	"50ms"	"Hit"	1.14128	23
"698"	"3"	1	0.31552	2	41	"2"	33	1.5519	3.399495	"TEN"	"RANDREG"	"50ms"	"Hit"	1.23638	25
"702"	"3"	1	0.31552	2	47	"2"	3	1.1569	3.399495	"TEN"	"RANDREG"	"50ms"	"Hit"	0.84138	17
"703"	"3"	1	0.31552	2	48	"2"	21	1.3581	3.399495	"TEN"	"RANDREG"	"50ms"	"Hit"	1.04258	21
"704"	"3"	1	0.31552	2	49	"2"	29	1.3656	3.399495	"TEN"	"RANDREG"	"50ms"	"Hit"	1.05008	21
"705"	"3"	1	0.31552	2	52	"2"	34	1.116	3.399495	"TEN"	"RANDREG"	"50ms"	"Hit"	0.80048	16
"706"	"3"	1	0.31552	2	53	"2"	28	1.4508	3.399495	"TEN"	"RANDREG"	"50ms"	"Hit"	1.13528	23
"707"	"3"	1	0.31552	2	57	"2"	13	1.3122	3.399495	"TEN"	"RANDREG"	"50ms"	"Hit"	0.99668	20
"708"	"3"	1	0.31552	2	59	"2"	23	1.4493	3.399495	"TEN"	"RANDREG"	"50ms"	"Hit"	1.13378	23
"709"	"3"	1	0.31552	2	60	"2"	35	1.6387	3.399495	"TEN"	"RANDREG"	"50ms"	"Hit"	1.32318	26
"711"	"3"	1	0.31552	2	63	"2"	15	1.3404	3.399495	"TEN"	"RANDREG"	"50ms"	"Hit"	1.02488	20
"712"	"3"	1	0.31552	2	65	"2"	1	1.4651	3.399495	"TEN"	"RANDREG"	"50ms"	"Hit"	1.14958	23
"713"	"3"	1	0.31552	2	66	"2"	7	1.4468	3.399495	"TEN"	"RANDREG"	"50ms"	"Hit"	1.13128	23
"714"	"3"	1	0.31552	2	75	"2"	9	1.6167	3.399495	"TEN"	"RANDREG"	"50ms"	"Hit"	1.30118	26
"715"	"3"	1	0.31552	2	78	"2"	4	1.4559	3.399495	"TEN"	"RANDREG"	"50ms"	"Hit"	1.14038	23
"716"	"4"	3	0.38188	2	2	"2"	7	1.2035	4.201367	"TEN"	"RANDREG"	"50ms"	"Hit"	0.82162	16
"717"	"4"	3	0.38188	2	3	"2"	17	1.3409	4.201367	"TEN"	"RANDREG"	"50ms"	"Hit"	0.95902	19
"718"	"4"	3	0.38188	2	4	"2"	22	1.2938	4.201367	"TEN"	"RANDREG"	"50ms"	"Hit"	0.91192	18
"719"	"4"	3	0.38188	2	5	"2"	35	1.3031	4.201367	"TEN"	"RANDREG"	"50ms"	"Hit"	0.92122	18
"720"	"4"	3	0.38188	2	8	"2"	6	1.4132	4.201367	"TEN"	"RANDREG"	"50ms"	"Hit"	1.03132	21
"721"	"4"	3	0.38188	2	11	"2"	10	1.2009	4.201367	"TEN"	"RANDREG"	"50ms"	"Hit"	0.81902	16
"722"	"4"	3	0.38188	2	17	"2"	9	1.3577	4.201367	"TEN"	"RANDREG"	"50ms"	"Hit"	0.97582	20
"723"	"4"	3	0.38188	2	25	"2"	11	1.1323	4.201367	"TEN"	"RANDREG"	"50ms"	"Hit"	0.75042	15
"724"	"4"	3	0.38188	2	26	"2"	18	1.3539	4.201367	"TEN"	"RANDREG"	"50ms"	"Hit"	0.97202	19
"725"	"4"	3	0.38188	2	34	"2"	26	1.2461	4.201367	"TEN"	"RANDREG"	"50ms"	"Hit"	0.86422	17
"726"	"4"	3	0.38188	2	36	"2"	19	1.2329	4.201367	"TEN"	"RANDREG"	"50ms"	"Hit"	0.85102	17
"727"	"4"	3	0.38188	2	39	"2"	27	1.1551	4.201367	"TEN"	"RANDREG"	"50ms"	"Hit"	0.77322	15
"728"	"4"	3	0.38188	2	40	"2"	31	1.1021	4.201367	"TEN"	"RANDREG"	"50ms"	"Hit"	0.72022	14
"729"	"4"	3	0.38188	2	43	"2"	21	1.4805	4.201367	"TEN"	"RANDREG"	"50ms"	"Hit"	1.09862	22
"730"	"4"	3	0.38188	2	44	"2"	2	1.5182	4.201367	"TEN"	"RANDREG"	"50ms"	"Hit"	1.13632	23
"731"	"4"	3	0.38188	2	45	"2"	8	1.2006	4.201367	"TEN"	"RANDREG"	"50ms"	"Hit"	0.81872	16
"732"	"4"	3	0.38188	2	47	"2"	14	1.1917	4.201367	"TEN"	"RANDREG"	"50ms"	"Hit"	0.80982	16
"733"	"4"	3	0.38188	2	48	"2"	1	1.3845	4.201367	"TEN"	"RANDREG"	"50ms"	"Hit"	1.00262	20
"734"	"4"	3	0.38188	2	49	"2"	4	1.3361	4.201367	"TEN"	"RANDREG"	"50ms"	"Hit"	0.95422	19
"735"	"4"	3	0.38188	2	51	"2"	33	1.3127	4.201367	"TEN"	"RANDREG"	"50ms"	"Hit"	0.93082	19
"736"	"4"	3	0.38188	2	53	"2"	23	1.232	4.201367	"TEN"	"RANDREG"	"50ms"	"Hit"	0.85012	17
"737"	"4"	3	0.38188	2	54	"2"	30	1.322	4.201367	"TEN"	"RANDREG"	"50ms"	"Hit"	0.94012	19
"738"	"4"	3	0.38188	2	55	"2"	20	1.1462	4.201367	"TEN"	"RANDREG"	"50ms"	"Hit"	0.76432	15
"739"	"4"	3	0.38188	2	56	"2"	13	1.2236	4.201367	"TEN"	"RANDREG"	"50ms"	"Hit"	0.84172	17
"740"	"4"	3	0.38188	2	57	"2"	5	1.2467	4.201367	"TEN"	"RANDREG"	"50ms"	"Hit"	0.86482	17
"741"	"4"	3	0.38188	2	58	"2"	16	1.1148	4.201367	"TEN"	"RANDREG"	"50ms"	"Hit"	0.73292	15
"742"	"4"	3	0.38188	2	60	"2"	15	1.4169	4.201367	"TEN"	"RANDREG"	"50ms"	"Hit"	1.03502	21
"743"	"4"	3	0.38188	2	61	"2"	29	1.4389	4.201367	"TEN"	"RANDREG"	"50ms"	"Hit"	1.05702	21
"744"	"4"	3	0.38188	2	62	"2"	12	1.3676	4.201367	"TEN"	"RANDREG"	"50ms"	"Hit"	0.98572	20
"745"	"4"	3	0.38188	2	68	"2"	34	1.1443	4.201367	"TEN"	"RANDREG"	"50ms"	"Hit"	0.76242	15
"746"	"4"	3	0.38188	2	69	"2"	24	1.2902	4.201367	"TEN"	"RANDREG"	"50ms"	"Hit"	0.90832	18
"747"	"4"	3	0.38188	2	72	"2"	3	1.4109	4.201367	"TEN"	"RANDREG"	"50ms"	"Hit"	1.02902	21
"748"	"4"	3	0.38188	2	78	"2"	25	1.2721	4.201367	"TEN"	"RANDREG"	"50ms"	"Hit"	0.89022	18
"749"	"4"	3	0.38188	2	79	"2"	28	1.3916	4.201367	"TEN"	"RANDREG"	"50ms"	"Hit"	1.00972	20
"750"	"4"	3	0.38188	2	80	"2"	32	1.2465	4.201367	"TEN"	"RANDREG"	"50ms"	"Hit"	0.86462	17
"751"	"5"	1	0.40304	2	1	"2"	30	1.1435	4.201367	"TEN"	"RANDREG"	"50ms"	"Hit"	0.74046	15
"752"	"5"	1	0.40304	2	2	"2"	21	1.4583	4.201367	"TEN"	"RANDREG"	"50ms"	"Hit"	1.05526	21
"753"	"5"	1	0.40304	2	3	"2"	35	1.072	4.201367	"TEN"	"RANDREG"	"50ms"	"Hit"	0.66896	13
"754"	"5"	1	0.40304	2	5	"2"	24	1.1756	4.201367	"TEN"	"RANDREG"	"50ms"	"Hit"	0.77256	15
"755"	"5"	1	0.40304	2	11	"2"	18	1.3367	4.201367	"TEN"	"RANDREG"	"50ms"	"Hit"	0.93366	19
"756"	"5"	1	0.40304	2	12	"2"	5	1.3213	4.201367	"TEN"	"RANDREG"	"50ms"	"Hit"	0.91826	18
"757"	"5"	1	0.40304	2	13	"2"	29	1.2008	4.201367	"TEN"	"RANDREG"	"50ms"	"Hit"	0.79776	16
"758"	"5"	1	0.40304	2	14	"2"	17	1.1806	4.201367	"TEN"	"RANDREG"	"50ms"	"Hit"	0.77756	16
"759"	"5"	1	0.40304	2	16	"2"	19	1.0876	4.201367	"TEN"	"RANDREG"	"50ms"	"Hit"	0.68456	14
"760"	"5"	1	0.40304	2	21	"2"	26	1.2934	4.201367	"TEN"	"RANDREG"	"50ms"	"Hit"	0.89036	18
"761"	"5"	1	0.40304	2	23	"2"	1	1.0283	4.201367	"TEN"	"RANDREG"	"50ms"	"Hit"	0.62526	13
"762"	"5"	1	0.40304	2	28	"2"	11	1.3244	4.201367	"TEN"	"RANDREG"	"50ms"	"Hit"	0.92136	18
"763"	"5"	1	0.40304	2	32	"2"	7	1.3083	4.201367	"TEN"	"RANDREG"	"50ms"	"Hit"	0.90526	18
"764"	"5"	1	0.40304	2	33	"2"	9	1.1696	4.201367	"TEN"	"RANDREG"	"50ms"	"Hit"	0.76656	15
"765"	"5"	1	0.40304	2	34	"2"	31	1.2438	4.201367	"TEN"	"RANDREG"	"50ms"	"Hit"	0.84076	17
"766"	"5"	1	0.40304	2	36	"2"	32	1.3206	4.201367	"TEN"	"RANDREG"	"50ms"	"Hit"	0.91756	18
"767"	"5"	1	0.40304	2	39	"2"	22	1.3425	4.201367	"TEN"	"RANDREG"	"50ms"	"Hit"	0.93946	19
"768"	"5"	1	0.40304	2	41	"2"	4	1.1801	4.201367	"TEN"	"RANDREG"	"50ms"	"Hit"	0.77706	16
"769"	"5"	1	0.40304	2	42	"2"	16	1.1448	4.201367	"TEN"	"RANDREG"	"50ms"	"Hit"	0.74176	15
"770"	"5"	1	0.40304	2	44	"2"	6	1.249	4.201367	"TEN"	"RANDREG"	"50ms"	"Hit"	0.84596	17
"771"	"5"	1	0.40304	2	45	"2"	12	1.2254	4.201367	"TEN"	"RANDREG"	"50ms"	"Hit"	0.82236	16
"772"	"5"	1	0.40304	2	47	"2"	23	1.2723	4.201367	"TEN"	"RANDREG"	"50ms"	"Hit"	0.86926	17
"773"	"5"	1	0.40304	2	48	"2"	13	1.1468	4.201367	"TEN"	"RANDREG"	"50ms"	"Hit"	0.74376	15
"774"	"5"	1	0.40304	2	49	"2"	20	1.0603	4.201367	"TEN"	"RANDREG"	"50ms"	"Hit"	0.65726	13
"775"	"5"	1	0.40304	2	52	"2"	28	1.1214	4.201367	"TEN"	"RANDREG"	"50ms"	"Hit"	0.71836	14
"776"	"5"	1	0.40304	2	53	"2"	3	1.351	4.201367	"TEN"	"RANDREG"	"50ms"	"Hit"	0.94796	19
"777"	"5"	1	0.40304	2	57	"2"	25	1.1996	4.201367	"TEN"	"RANDREG"	"50ms"	"Hit"	0.79656	16
"778"	"5"	1	0.40304	2	59	"2"	14	1.1786	4.201367	"TEN"	"RANDREG"	"50ms"	"Hit"	0.77556	16
"779"	"5"	1	0.40304	2	60	"2"	34	1.1305	4.201367	"TEN"	"RANDREG"	"50ms"	"Hit"	0.72746	15
"780"	"5"	1	0.40304	2	62	"2"	10	1.0931	4.201367	"TEN"	"RANDREG"	"50ms"	"Hit"	0.69006	14
"781"	"5"	1	0.40304	2	63	"2"	8	1.1702	4.201367	"TEN"	"RANDREG"	"50ms"	"Hit"	0.76716	15
"782"	"5"	1	0.40304	2	65	"2"	27	1.0811	4.201367	"TEN"	"RANDREG"	"50ms"	"Hit"	0.67806	14
"783"	"5"	1	0.40304	2	66	"2"	2	0.9679	4.201367	"TEN"	"RANDREG"	"50ms"	"Hit"	0.56486	11
"784"	"5"	1	0.40304	2	75	"2"	33	1.1622	4.201367	"TEN"	"RANDREG"	"50ms"	"Hit"	0.75916	15
"785"	"5"	1	0.40304	2	78	"2"	15	1.221	4.201367	"TEN"	"RANDREG"	"50ms"	"Hit"	0.81796	16
"787"	"6"	5	0.37528	2	4	"2"	20	1.4518	3.522954	"TEN"	"RANDREG"	"50ms"	"Hit"	1.07652	22
"788"	"6"	5	0.37528	2	6	"2"	9	1.1129	3.522954	"TEN"	"RANDREG"	"50ms"	"Hit"	0.73762	15
"789"	"6"	5	0.37528	2	8	"2"	16	1.4017	3.522954	"TEN"	"RANDREG"	"50ms"	"Hit"	1.02642	21
"790"	"6"	5	0.37528	2	14	"2"	7	1.4977	3.522954	"TEN"	"RANDREG"	"50ms"	"Hit"	1.12242	22
"791"	"6"	5	0.37528	2	16	"2"	8	1.3103	3.522954	"TEN"	"RANDREG"	"50ms"	"Hit"	0.93502	19
"792"	"6"	5	0.37528	2	17	"2"	5	1.2769	3.522954	"TEN"	"RANDREG"	"50ms"	"Hit"	0.90162	18
"793"	"6"	5	0.37528	2	18	"2"	4	0.9356	3.522954	"TEN"	"RANDREG"	"50ms"	"Hit"	0.56032	11
"794"	"6"	5	0.37528	2	19	"2"	18	1.2849	3.522954	"TEN"	"RANDREG"	"50ms"	"Hit"	0.90962	18
"795"	"6"	5	0.37528	2	20	"2"	13	1.5886	3.522954	"TEN"	"RANDREG"	"50ms"	"Hit"	1.21332	24
"796"	"6"	5	0.37528	2	22	"2"	33	1.7296	3.522954	"TEN"	"RANDREG"	"50ms"	"Hit"	1.35432	27
"797"	"6"	5	0.37528	2	24	"2"	6	1.6262	3.522954	"TEN"	"RANDREG"	"50ms"	"Hit"	1.25092	25
"798"	"6"	5	0.37528	2	26	"2"	34	1.2543	3.522954	"TEN"	"RANDREG"	"50ms"	"Hit"	0.87902	18
"799"	"6"	5	0.37528	2	27	"2"	11	1.2902	3.522954	"TEN"	"RANDREG"	"50ms"	"Hit"	0.91492	18
"800"	"6"	5	0.37528	2	29	"2"	24	1.0018	3.522954	"TEN"	"RANDREG"	"50ms"	"Hit"	0.62652	13
"801"	"6"	5	0.37528	2	34	"2"	2	1.5043	3.522954	"TEN"	"RANDREG"	"50ms"	"Hit"	1.12902	23
"802"	"6"	5	0.37528	2	35	"2"	23	1.3656	3.522954	"TEN"	"RANDREG"	"50ms"	"Hit"	0.99032	20
"803"	"6"	5	0.37528	2	36	"2"	21	1.6633	3.522954	"TEN"	"RANDREG"	"50ms"	"Hit"	1.28802	26
"804"	"6"	5	0.37528	2	37	"2"	19	1.3616	3.522954	"TEN"	"RANDREG"	"50ms"	"Hit"	0.98632	20
"805"	"6"	5	0.37528	2	39	"2"	3	1.5688	3.522954	"TEN"	"RANDREG"	"50ms"	"Hit"	1.19352	24
"806"	"6"	5	0.37528	2	41	"2"	10	1.5195	3.522954	"TEN"	"RANDREG"	"50ms"	"Hit"	1.14422	23
"807"	"6"	5	0.37528	2	42	"2"	27	1.1967	3.522954	"TEN"	"RANDREG"	"50ms"	"Hit"	0.82142	16
"808"	"6"	5	0.37528	2	46	"2"	35	1.4954	3.522954	"TEN"	"RANDREG"	"50ms"	"Hit"	1.12012	22
"809"	"6"	5	0.37528	2	50	"2"	25	1.1954	3.522954	"TEN"	"RANDREG"	"50ms"	"Hit"	0.82012	16
"810"	"6"	5	0.37528	2	53	"2"	12	1.2241	3.522954	"TEN"	"RANDREG"	"50ms"	"Hit"	0.84882	17
"811"	"6"	5	0.37528	2	54	"2"	22	1.4106	3.522954	"TEN"	"RANDREG"	"50ms"	"Hit"	1.03532	21
"812"	"6"	5	0.37528	2	55	"2"	28	1.3653	3.522954	"TEN"	"RANDREG"	"50ms"	"Hit"	0.99002	20
"813"	"6"	5	0.37528	2	56	"2"	17	1.3724	3.522954	"TEN"	"RANDREG"	"50ms"	"Hit"	0.99712	20
"814"	"6"	5	0.37528	2	58	"2"	32	1.4036	3.522954	"TEN"	"RANDREG"	"50ms"	"Hit"	1.02832	21
"815"	"6"	5	0.37528	2	62	"2"	15	1.214	3.522954	"TEN"	"RANDREG"	"50ms"	"Hit"	0.83872	17
"816"	"6"	5	0.37528	2	63	"2"	26	1.6269	3.522954	"TEN"	"RANDREG"	"50ms"	"Hit"	1.25162	25
"817"	"6"	5	0.37528	2	66	"2"	29	1.5524	3.522954	"TEN"	"RANDREG"	"50ms"	"Hit"	1.17712	24
"818"	"6"	5	0.37528	2	68	"2"	30	1.1686	3.522954	"TEN"	"RANDREG"	"50ms"	"Hit"	0.79332	16
"819"	"6"	5	0.37528	2	69	"2"	31	1.5276	3.522954	"TEN"	"RANDREG"	"50ms"	"Hit"	1.15232	23
"820"	"6"	5	0.37528	2	72	"2"	1	1.3014	3.522954	"TEN"	"RANDREG"	"50ms"	"Hit"	0.92612	19
"821"	"8"	4	0.38942	2	3	"2"	18	1.6051	3.680934	"TEN"	"RANDREG"	"50ms"	"Hit"	1.21568	24
"822"	"8"	4	0.38942	2	4	"2"	17	1.2952	3.680934	"TEN"	"RANDREG"	"50ms"	"Hit"	0.90578	18
"823"	"8"	4	0.38942	2	6	"2"	21	1.4259	3.680934	"TEN"	"RANDREG"	"50ms"	"Hit"	1.03648	21
"824"	"8"	4	0.38942	2	8	"2"	20	1.244	3.680934	"TEN"	"RANDREG"	"50ms"	"Hit"	0.85458	17
"825"	"8"	4	0.38942	2	14	"2"	23	1.4337	3.680934	"TEN"	"RANDREG"	"50ms"	"Hit"	1.04428	21
"826"	"8"	4	0.38942	2	16	"2"	22	1.2427	3.680934	"TEN"	"RANDREG"	"50ms"	"Hit"	0.85328	17
"827"	"8"	4	0.38942	2	17	"2"	11	1.47	3.680934	"TEN"	"RANDREG"	"50ms"	"Hit"	1.08058	22
"828"	"8"	4	0.38942	2	18	"2"	9	1.5706	3.680934	"TEN"	"RANDREG"	"50ms"	"Hit"	1.18118	24
"830"	"8"	4	0.38942	2	20	"2"	4	1.1352	3.680934	"TEN"	"RANDREG"	"50ms"	"Hit"	0.74578	15
"831"	"8"	4	0.38942	2	22	"2"	2	1.329	3.680934	"TEN"	"RANDREG"	"50ms"	"Hit"	0.93958	19
"832"	"8"	4	0.38942	2	24	"2"	12	1.3321	3.680934	"TEN"	"RANDREG"	"50ms"	"Hit"	0.94268	19
"833"	"8"	4	0.38942	2	26	"2"	25	1.5439	3.680934	"TEN"	"RANDREG"	"50ms"	"Hit"	1.15448	23
"834"	"8"	4	0.38942	2	27	"2"	10	1.6344	3.680934	"TEN"	"RANDREG"	"50ms"	"Hit"	1.24498	25
"835"	"8"	4	0.38942	2	29	"2"	13	1.1264	3.680934	"TEN"	"RANDREG"	"50ms"	"Hit"	0.73698	15
"836"	"8"	4	0.38942	2	34	"2"	33	1.2794	3.680934	"TEN"	"RANDREG"	"50ms"	"Hit"	0.88998	18
"837"	"8"	4	0.38942	2	35	"2"	19	1.2494	3.680934	"TEN"	"RANDREG"	"50ms"	"Hit"	0.85998	17
"838"	"8"	4	0.38942	2	36	"2"	5	1.4236	3.680934	"TEN"	"RANDREG"	"50ms"	"Hit"	1.03418	21
"839"	"8"	4	0.38942	2	37	"2"	3	1.3616	3.680934	"TEN"	"RANDREG"	"50ms"	"Hit"	0.97218	19
"840"	"8"	4	0.38942	2	39	"2"	28	1.3096	3.680934	"TEN"	"RANDREG"	"50ms"	"Hit"	0.92018	18
"841"	"8"	4	0.38942	2	41	"2"	32	1.2653	3.680934	"TEN"	"RANDREG"	"50ms"	"Hit"	0.87588	18
"842"	"8"	4	0.38942	2	42	"2"	24	1.211	3.680934	"TEN"	"RANDREG"	"50ms"	"Hit"	0.82158	16
"843"	"8"	4	0.38942	2	46	"2"	15	1.3242	3.680934	"TEN"	"RANDREG"	"50ms"	"Hit"	0.93478	19
"844"	"8"	4	0.38942	2	50	"2"	34	1.5739	3.680934	"TEN"	"RANDREG"	"50ms"	"Hit"	1.18448	24
"845"	"8"	4	0.38942	2	53	"2"	16	1.6353	3.680934	"TEN"	"RANDREG"	"50ms"	"Hit"	1.24588	25
"846"	"8"	4	0.38942	2	54	"2"	6	1.4234	3.680934	"TEN"	"RANDREG"	"50ms"	"Hit"	1.03398	21
"847"	"8"	4	0.38942	2	55	"2"	8	1.4299	3.680934	"TEN"	"RANDREG"	"50ms"	"Hit"	1.04048	21
"848"	"8"	4	0.38942	2	56	"2"	35	1.2014	3.680934	"TEN"	"RANDREG"	"50ms"	"Hit"	0.81198	16
"849"	"8"	4	0.38942	2	58	"2"	31	1.3897	3.680934	"TEN"	"RANDREG"	"50ms"	"Hit"	1.00028	20
"850"	"8"	4	0.38942	2	62	"2"	26	1.3719	3.680934	"TEN"	"RANDREG"	"50ms"	"Hit"	0.98248	20
"851"	"8"	4	0.38942	2	63	"2"	1	0.9986	3.680934	"TEN"	"RANDREG"	"50ms"	"Hit"	0.60918	12
"852"	"8"	4	0.38942	2	66	"2"	7	1.3872	3.680934	"TEN"	"RANDREG"	"50ms"	"Hit"	0.99778	20
"853"	"8"	4	0.38942	2	68	"2"	14	1.2059	3.680934	"TEN"	"RANDREG"	"50ms"	"Hit"	0.81648	16
"854"	"8"	4	0.38942	2	69	"2"	27	1.42	3.680934	"TEN"	"RANDREG"	"50ms"	"Hit"	1.03058	21
"855"	"8"	4	0.38942	2	72	"2"	30	1.3734	3.680934	"TEN"	"RANDREG"	"50ms"	"Hit"	0.98398	20
"856"	"9"	2	0.35352	2	2	"2"	5	1.1276	3.604818	"TEN"	"RANDREG"	"50ms"	"Hit"	0.77408	15
"858"	"9"	2	0.35352	2	4	"2"	6	1.3967	3.604818	"TEN"	"RANDREG"	"50ms"	"Hit"	1.04318	21
"859"	"9"	2	0.35352	2	5	"2"	21	1.5767	3.604818	"TEN"	"RANDREG"	"50ms"	"Hit"	1.22318	24
"861"	"9"	2	0.35352	2	11	"2"	23	1.4831	3.604818	"TEN"	"RANDREG"	"50ms"	"Hit"	1.12958	23
"862"	"9"	2	0.35352	2	17	"2"	10	1.2445	3.604818	"TEN"	"RANDREG"	"50ms"	"Hit"	0.89098	18
"864"	"9"	2	0.35352	2	26	"2"	22	1.2952	3.604818	"TEN"	"RANDREG"	"50ms"	"Hit"	0.94168	19
"865"	"9"	2	0.35352	2	34	"2"	9	1.4356	3.604818	"TEN"	"RANDREG"	"50ms"	"Hit"	1.08208	22
"866"	"9"	2	0.35352	2	36	"2"	18	1.3562	3.604818	"TEN"	"RANDREG"	"50ms"	"Hit"	1.00268	20
"867"	"9"	2	0.35352	2	39	"2"	11	1.501	3.604818	"TEN"	"RANDREG"	"50ms"	"Hit"	1.14748	23
"868"	"9"	2	0.35352	2	40	"2"	32	1.4129	3.604818	"TEN"	"RANDREG"	"50ms"	"Hit"	1.05938	21
"869"	"9"	2	0.35352	2	43	"2"	28	1.3335	3.604818	"TEN"	"RANDREG"	"50ms"	"Hit"	0.97998	20
"870"	"9"	2	0.35352	2	44	"2"	27	1.3902	3.604818	"TEN"	"RANDREG"	"50ms"	"Hit"	1.03668	21
"871"	"9"	2	0.35352	2	45	"2"	16	1.3834	3.604818	"TEN"	"RANDREG"	"50ms"	"Hit"	1.02988	21
"872"	"9"	2	0.35352	2	47	"2"	8	1.483	3.604818	"TEN"	"RANDREG"	"50ms"	"Hit"	1.12948	23
"873"	"9"	2	0.35352	2	48	"2"	2	1.6056	3.604818	"TEN"	"RANDREG"	"50ms"	"Hit"	1.25208	25
"874"	"9"	2	0.35352	2	49	"2"	34	1.4216	3.604818	"TEN"	"RANDREG"	"50ms"	"Hit"	1.06808	21
"876"	"9"	2	0.35352	2	53	"2"	17	1.0354	3.604818	"TEN"	"RANDREG"	"50ms"	"Hit"	0.68188	14
"877"	"9"	2	0.35352	2	54	"2"	4	1.1697	3.604818	"TEN"	"RANDREG"	"50ms"	"Hit"	0.81618	16
"879"	"9"	2	0.35352	2	57	"2"	7	1.4599	3.604818	"TEN"	"RANDREG"	"50ms"	"Hit"	1.10638	22
"880"	"9"	2	0.35352	2	58	"2"	35	1.2711	3.604818	"TEN"	"RANDREG"	"50ms"	"Hit"	0.91758	18
"881"	"9"	2	0.35352	2	60	"2"	13	1.1842	3.604818	"TEN"	"RANDREG"	"50ms"	"Hit"	0.83068	17
"882"	"9"	2	0.35352	2	61	"2"	3	1.2566	3.604818	"TEN"	"RANDREG"	"50ms"	"Hit"	0.90308	18
"883"	"9"	2	0.35352	2	62	"2"	1	0.9145	3.604818	"TEN"	"RANDREG"	"50ms"	"Hit"	0.56098	11
"884"	"9"	2	0.35352	2	68	"2"	19	1.6818	3.604818	"TEN"	"RANDREG"	"50ms"	"Hit"	1.32828	27
"885"	"9"	2	0.35352	2	69	"2"	24	1.4455	3.604818	"TEN"	"RANDREG"	"50ms"	"Hit"	1.09198	22
"886"	"9"	2	0.35352	2	72	"2"	31	1.161	3.604818	"TEN"	"RANDREG"	"50ms"	"Hit"	0.80748	16
"888"	"9"	2	0.35352	2	79	"2"	12	1.2023	3.604818	"TEN"	"RANDREG"	"50ms"	"Hit"	0.84878	17
"889"	"9"	2	0.35352	2	80	"2"	26	1.2626	3.604818	"TEN"	"RANDREG"	"50ms"	"Hit"	0.90908	18
"890"	"1"	5	0.39202	2	16	"4"	5	0.4761	3.680934	"TEN"	"STEP"	"50ms"	"Hit"	0.4761	10
"891"	"1"	5	0.39202	2	20	"4"	1	0.3199	3.680934	"TEN"	"STEP"	"50ms"	"Hit"	0.3199	6
"892"	"1"	5	0.39202	2	29	"4"	2	0.3959	3.680934	"TEN"	"STEP"	"50ms"	"Hit"	0.3959	8
"893"	"1"	5	0.39202	2	35	"4"	4	0.3026	3.680934	"TEN"	"STEP"	"50ms"	"Hit"	0.3026	6
"894"	"1"	5	0.39202	2	61	"4"	3	0.4656	3.680934	"TEN"	"STEP"	"50ms"	"Hit"	0.4656	9
"895"	"10"	4	0.35834	2	32	"4"	5	0.3763	3.522954	"TEN"	"STEP"	"50ms"	"Hit"	0.3763	8
"896"	"10"	4	0.35834	2	45	"4"	3	0.4048	3.522954	"TEN"	"STEP"	"50ms"	"Hit"	0.4048	8
"897"	"10"	4	0.35834	2	48	"4"	2	0.3595	3.522954	"TEN"	"STEP"	"50ms"	"Hit"	0.3595	7
"898"	"10"	4	0.35834	2	49	"4"	1	0.2818	3.522954	"TEN"	"STEP"	"50ms"	"Hit"	0.2818	6
"899"	"10"	4	0.35834	2	64	"4"	4	0.3693	3.522954	"TEN"	"STEP"	"50ms"	"Hit"	0.3693	7
"900"	"11"	2	0.47288	2	15	"4"	1	0.4792	3.680934	"TEN"	"STEP"	"50ms"	"Hit"	0.4792	10
"901"	"11"	2	0.47288	2	59	"4"	3	0.5234	3.680934	"TEN"	"STEP"	"50ms"	"Hit"	0.5234	10
"902"	"11"	2	0.47288	2	69	"4"	4	0.4571	3.680934	"TEN"	"STEP"	"50ms"	"Hit"	0.4571	9
"903"	"11"	2	0.47288	2	71	"4"	2	0.4993	3.680934	"TEN"	"STEP"	"50ms"	"Hit"	0.4993	10
"904"	"11"	2	0.47288	2	77	"4"	5	0.4054	3.680934	"TEN"	"STEP"	"50ms"	"Hit"	0.4054	8
"905"	"12"	6	0.29824	2	12	"4"	5	0.2785	4.482805	"TEN"	"STEP"	"50ms"	"Hit"	0.2785	6
"906"	"12"	6	0.29824	2	19	"4"	3	0.3103	4.482805	"TEN"	"STEP"	"50ms"	"Hit"	0.3103	6
"907"	"12"	6	0.29824	2	36	"4"	4	0.3642	4.482805	"TEN"	"STEP"	"50ms"	"Hit"	0.3642	7
"908"	"12"	6	0.29824	2	45	"4"	1	0.2665	4.482805	"TEN"	"STEP"	"50ms"	"Hit"	0.2665	5
"909"	"12"	6	0.29824	2	61	"4"	2	0.2717	4.482805	"TEN"	"STEP"	"50ms"	"Hit"	0.2717	5
"910"	"13"	5	0.32328	2	29	"4"	5	0.2758	4.201367	"TEN"	"STEP"	"50ms"	"Hit"	0.2758	6
"911"	"13"	5	0.32328	2	36	"4"	1	0.3666	4.201367	"TEN"	"STEP"	"50ms"	"Hit"	0.3666	7
"912"	"13"	5	0.32328	2	43	"4"	2	0.3836	4.201367	"TEN"	"STEP"	"50ms"	"Hit"	0.3836	8
"913"	"13"	5	0.32328	2	71	"4"	4	0.2576	4.201367	"TEN"	"STEP"	"50ms"	"Hit"	0.2576	5
"914"	"13"	5	0.32328	2	74	"4"	3	0.3328	4.201367	"TEN"	"STEP"	"50ms"	"Hit"	0.3328	7
"915"	"2"	3	0.36366	2	8	"4"	2	0.4322	3.680934	"TEN"	"STEP"	"50ms"	"Hit"	0.4322	9
"916"	"2"	3	0.36366	2	11	"4"	1	0.3547	3.680934	"TEN"	"STEP"	"50ms"	"Hit"	0.3547	7
"917"	"2"	3	0.36366	2	63	"4"	4	0.3298	3.680934	"TEN"	"STEP"	"50ms"	"Hit"	0.3298	7
"918"	"2"	3	0.36366	2	75	"4"	5	0.307	3.680934	"TEN"	"STEP"	"50ms"	"Hit"	0.307	6
"919"	"2"	3	0.36366	2	79	"4"	3	0.3946	3.680934	"TEN"	"STEP"	"50ms"	"Hit"	0.3946	8
"920"	"3"	1	0.31552	2	8	"4"	2	0.2841	3.399495	"TEN"	"STEP"	"50ms"	"Hit"	0.2841	6
"921"	"3"	1	0.31552	2	19	"4"	3	0.2693	3.399495	"TEN"	"STEP"	"50ms"	"Hit"	0.2693	5
"922"	"3"	1	0.31552	2	35	"4"	4	0.3144	3.399495	"TEN"	"STEP"	"50ms"	"Hit"	0.3144	6
"923"	"3"	1	0.31552	2	43	"4"	1	0.3244	3.399495	"TEN"	"STEP"	"50ms"	"Hit"	0.3244	6
"924"	"3"	1	0.31552	2	74	"4"	5	0.3854	3.399495	"TEN"	"STEP"	"50ms"	"Hit"	0.3854	8
"925"	"4"	3	0.38188	2	7	"4"	1	0.4341	4.201367	"TEN"	"STEP"	"50ms"	"Hit"	0.4341	9
"926"	"4"	3	0.38188	2	15	"4"	3	0.4129	4.201367	"TEN"	"STEP"	"50ms"	"Hit"	0.4129	8
"927"	"4"	3	0.38188	2	18	"4"	5	0.3923	4.201367	"TEN"	"STEP"	"50ms"	"Hit"	0.3923	8
"928"	"4"	3	0.38188	2	23	"4"	4	0.3075	4.201367	"TEN"	"STEP"	"50ms"	"Hit"	0.3075	6
"929"	"4"	3	0.38188	2	73	"4"	2	0.3626	4.201367	"TEN"	"STEP"	"50ms"	"Hit"	0.3626	7
"930"	"5"	1	0.40304	2	8	"4"	2	0.4554	4.201367	"TEN"	"STEP"	"50ms"	"Hit"	0.4554	9
"931"	"5"	1	0.40304	2	19	"4"	4	0.4581	4.201367	"TEN"	"STEP"	"50ms"	"Hit"	0.4581	9
"932"	"5"	1	0.40304	2	35	"4"	5	0.3835	4.201367	"TEN"	"STEP"	"50ms"	"Hit"	0.3835	8
"933"	"5"	1	0.40304	2	43	"4"	1	0.366	4.201367	"TEN"	"STEP"	"50ms"	"Hit"	0.366	7
"934"	"5"	1	0.40304	2	74	"4"	3	0.3522	4.201367	"TEN"	"STEP"	"50ms"	"Hit"	0.3522	7
"935"	"6"	5	0.37528	2	32	"4"	1	0.45	3.522954	"TEN"	"STEP"	"50ms"	"Hit"	0.45	9
"936"	"6"	5	0.37528	2	45	"4"	4	0.3684	3.522954	"TEN"	"STEP"	"50ms"	"Hit"	0.3684	7
"937"	"6"	5	0.37528	2	48	"4"	5	0.3566	3.522954	"TEN"	"STEP"	"50ms"	"Hit"	0.3566	7
"938"	"6"	5	0.37528	2	49	"4"	3	0.3427	3.522954	"TEN"	"STEP"	"50ms"	"Hit"	0.3427	7
"939"	"6"	5	0.37528	2	64	"4"	2	0.3587	3.522954	"TEN"	"STEP"	"50ms"	"Hit"	0.3587	7
"940"	"8"	4	0.38942	2	32	"4"	3	0.3932	3.680934	"TEN"	"STEP"	"50ms"	"Hit"	0.3932	8
"941"	"8"	4	0.38942	2	45	"4"	5	0.431	3.680934	"TEN"	"STEP"	"50ms"	"Hit"	0.431	9
"942"	"8"	4	0.38942	2	48	"4"	2	0.3539	3.680934	"TEN"	"STEP"	"50ms"	"Hit"	0.3539	7
"943"	"8"	4	0.38942	2	49	"4"	4	0.3562	3.680934	"TEN"	"STEP"	"50ms"	"Hit"	0.3562	7
"944"	"8"	4	0.38942	2	64	"4"	1	0.4128	3.680934	"TEN"	"STEP"	"50ms"	"Hit"	0.4128	8
"945"	"9"	2	0.35352	2	7	"4"	3	0.4187	3.604818	"TEN"	"STEP"	"50ms"	"Hit"	0.4187	8
"946"	"9"	2	0.35352	2	15	"4"	1	0.2627	3.604818	"TEN"	"STEP"	"50ms"	"Hit"	0.2627	5
"947"	"9"	2	0.35352	2	18	"4"	5	0.3916	3.604818	"TEN"	"STEP"	"50ms"	"Hit"	0.3916	8
"948"	"9"	2	0.35352	2	23	"4"	4	0.3683	3.604818	"TEN"	"STEP"	"50ms"	"Hit"	0.3683	7
"949"	"9"	2	0.35352	2	73	"4"	2	0.3263	3.604818	"TEN"	"STEP"	"50ms"	"Hit"	0.3263	7
"950"	"1"	3	0.43836	3	1	"2"	22	2.4073	3.241516	"TEN"	"RANDREG"	"75ms"	"Hit"	1.96894	26
"952"	"1"	3	0.43836	3	3	"2"	30	1.7166	3.241516	"TEN"	"RANDREG"	"75ms"	"Hit"	1.27824	17
"953"	"1"	3	0.43836	3	6	"2"	35	2.2737	3.241516	"TEN"	"RANDREG"	"75ms"	"Hit"	1.83534	24
"954"	"1"	3	0.43836	3	9	"2"	26	1.9969	3.241516	"TEN"	"RANDREG"	"75ms"	"Hit"	1.55854	21
"955"	"1"	3	0.43836	3	10	"2"	19	1.7486	3.241516	"TEN"	"RANDREG"	"75ms"	"Hit"	1.31024	17
"956"	"1"	3	0.43836	3	12	"2"	20	1.7576	3.241516	"TEN"	"RANDREG"	"75ms"	"Hit"	1.31924	18
"957"	"1"	3	0.43836	3	14	"2"	16	1.6018	3.241516	"TEN"	"RANDREG"	"75ms"	"Hit"	1.16344	16
"958"	"1"	3	0.43836	3	15	"2"	11	1.7924	3.241516	"TEN"	"RANDREG"	"75ms"	"Hit"	1.35404	18
"959"	"1"	3	0.43836	3	17	"2"	7	1.9928	3.241516	"TEN"	"RANDREG"	"75ms"	"Hit"	1.55444	21
"960"	"1"	3	0.43836	3	19	"2"	13	1.9426	3.241516	"TEN"	"RANDREG"	"75ms"	"Hit"	1.50424	20
"961"	"1"	3	0.43836	3	23	"2"	28	1.8102	3.241516	"TEN"	"RANDREG"	"75ms"	"Hit"	1.37184	18
"962"	"1"	3	0.43836	3	26	"2"	23	2.2542	3.241516	"TEN"	"RANDREG"	"75ms"	"Hit"	1.81584	24
"963"	"1"	3	0.43836	3	28	"2"	24	1.6603	3.241516	"TEN"	"RANDREG"	"75ms"	"Hit"	1.22194	16
"964"	"1"	3	0.43836	3	32	"2"	10	1.5458	3.241516	"TEN"	"RANDREG"	"75ms"	"Hit"	1.10744	15
"965"	"1"	3	0.43836	3	35	"2"	8	1.7244	3.241516	"TEN"	"RANDREG"	"75ms"	"Hit"	1.28604	17
"966"	"1"	3	0.43836	3	37	"2"	33	1.7278	3.241516	"TEN"	"RANDREG"	"75ms"	"Hit"	1.28944	17
"967"	"1"	3	0.43836	3	43	"2"	9	1.5912	3.241516	"TEN"	"RANDREG"	"75ms"	"Hit"	1.15284	15
"968"	"1"	3	0.43836	3	44	"2"	14	1.4578	3.241516	"TEN"	"RANDREG"	"75ms"	"Hit"	1.01944	14
"969"	"1"	3	0.43836	3	46	"2"	32	1.8607	3.241516	"TEN"	"RANDREG"	"75ms"	"Hit"	1.42234	19
"970"	"1"	3	0.43836	3	48	"2"	25	1.9915	3.241516	"TEN"	"RANDREG"	"75ms"	"Hit"	1.55314	21
"971"	"1"	3	0.43836	3	51	"2"	21	2.1353	3.241516	"TEN"	"RANDREG"	"75ms"	"Hit"	1.69694	23
"972"	"1"	3	0.43836	3	54	"2"	17	1.6739	3.241516	"TEN"	"RANDREG"	"75ms"	"Hit"	1.23554	16
"973"	"1"	3	0.43836	3	56	"2"	3	2.1332	3.241516	"TEN"	"RANDREG"	"75ms"	"Hit"	1.69484	23
"974"	"1"	3	0.43836	3	59	"2"	27	1.6699	3.241516	"TEN"	"RANDREG"	"75ms"	"Hit"	1.23154	16
"975"	"1"	3	0.43836	3	61	"2"	15	1.6731	3.241516	"TEN"	"RANDREG"	"75ms"	"Hit"	1.23474	16
"976"	"1"	3	0.43836	3	64	"2"	31	1.8612	3.241516	"TEN"	"RANDREG"	"75ms"	"Hit"	1.42284	19
"977"	"1"	3	0.43836	3	66	"2"	4	1.9862	3.241516	"TEN"	"RANDREG"	"75ms"	"Hit"	1.54784	21
"978"	"1"	3	0.43836	3	67	"2"	1	2.0216	3.241516	"TEN"	"RANDREG"	"75ms"	"Hit"	1.58324	21
"979"	"1"	3	0.43836	3	72	"2"	34	1.823	3.241516	"TEN"	"RANDREG"	"75ms"	"Hit"	1.38464	18
"980"	"1"	3	0.43836	3	74	"2"	5	2.136	3.241516	"TEN"	"RANDREG"	"75ms"	"Hit"	1.69764	23
"981"	"1"	3	0.43836	3	76	"2"	18	1.651	3.241516	"TEN"	"RANDREG"	"75ms"	"Hit"	1.21264	16
"982"	"1"	3	0.43836	3	77	"2"	12	1.733	3.241516	"TEN"	"RANDREG"	"75ms"	"Hit"	1.29464	17
"983"	"1"	3	0.43836	3	80	"2"	6	1.877	3.241516	"TEN"	"RANDREG"	"75ms"	"Hit"	1.43864	19
"984"	"10"	5	0.34134	3	2	"2"	2	2.2686	4.201367	"TEN"	"RANDREG"	"75ms"	"Hit"	1.92726	26
"985"	"10"	5	0.34134	3	7	"2"	15	1.3966	4.201367	"TEN"	"RANDREG"	"75ms"	"Hit"	1.05526	14
"986"	"10"	5	0.34134	3	10	"2"	12	1.6006	4.201367	"TEN"	"RANDREG"	"75ms"	"Hit"	1.25926	17
"987"	"10"	5	0.34134	3	11	"2"	23	1.7582	4.201367	"TEN"	"RANDREG"	"75ms"	"Hit"	1.41686	19
"988"	"10"	5	0.34134	3	13	"2"	29	1.7684	4.201367	"TEN"	"RANDREG"	"75ms"	"Hit"	1.42706	19
"989"	"10"	5	0.34134	3	15	"2"	28	1.5286	4.201367	"TEN"	"RANDREG"	"75ms"	"Hit"	1.18726	16
"990"	"10"	5	0.34134	3	24	"2"	9	2.2017	4.201367	"TEN"	"RANDREG"	"75ms"	"Hit"	1.86036	25
"991"	"10"	5	0.34134	3	27	"2"	7	1.2635	4.201367	"TEN"	"RANDREG"	"75ms"	"Hit"	0.92216	12
"992"	"10"	5	0.34134	3	29	"2"	26	1.5344	4.201367	"TEN"	"RANDREG"	"75ms"	"Hit"	1.19306	16
"993"	"10"	5	0.34134	3	30	"2"	13	1.8193	4.201367	"TEN"	"RANDREG"	"75ms"	"Hit"	1.47796	20
"994"	"10"	5	0.34134	3	32	"2"	30	1.9058	4.201367	"TEN"	"RANDREG"	"75ms"	"Hit"	1.56446	21
"995"	"10"	5	0.34134	3	33	"2"	25	1.6718	4.201367	"TEN"	"RANDREG"	"75ms"	"Hit"	1.33046	18
"996"	"10"	5	0.34134	3	35	"2"	6	2.0155	4.201367	"TEN"	"RANDREG"	"75ms"	"Hit"	1.67416	22
"997"	"10"	5	0.34134	3	36	"2"	1	1.7449	4.201367	"TEN"	"RANDREG"	"75ms"	"Hit"	1.40356	19
"998"	"10"	5	0.34134	3	39	"2"	32	1.9411	4.201367	"TEN"	"RANDREG"	"75ms"	"Hit"	1.59976	21
"999"	"10"	5	0.34134	3	41	"2"	33	1.6889	4.201367	"TEN"	"RANDREG"	"75ms"	"Hit"	1.34756	18
"1000"	"10"	5	0.34134	3	42	"2"	24	1.1373	4.201367	"TEN"	"RANDREG"	"75ms"	"Hit"	0.79596	11
"1001"	"10"	5	0.34134	3	45	"2"	20	1.8495	4.201367	"TEN"	"RANDREG"	"75ms"	"Hit"	1.50816	20
"1002"	"10"	5	0.34134	3	46	"2"	5	1.7099	4.201367	"TEN"	"RANDREG"	"75ms"	"Hit"	1.36856	18
"1003"	"10"	5	0.34134	3	47	"2"	22	1.5126	4.201367	"TEN"	"RANDREG"	"75ms"	"Hit"	1.17126	16
"1004"	"10"	5	0.34134	3	50	"2"	14	1.6766	4.201367	"TEN"	"RANDREG"	"75ms"	"Hit"	1.33526	18
"1005"	"10"	5	0.34134	3	52	"2"	19	2.0431	4.201367	"TEN"	"RANDREG"	"75ms"	"Hit"	1.70176	23
"1006"	"10"	5	0.34134	3	54	"2"	11	1.5788	4.201367	"TEN"	"RANDREG"	"75ms"	"Hit"	1.23746	16
"1007"	"10"	5	0.34134	3	55	"2"	35	1.7663	4.201367	"TEN"	"RANDREG"	"75ms"	"Hit"	1.42496	19
"1008"	"10"	5	0.34134	3	56	"2"	4	2.0795	4.201367	"TEN"	"RANDREG"	"75ms"	"Hit"	1.73816	23
"1009"	"10"	5	0.34134	3	61	"2"	10	1.8962	4.201367	"TEN"	"RANDREG"	"75ms"	"Hit"	1.55486	21
"1010"	"10"	5	0.34134	3	62	"2"	3	1.8341	4.201367	"TEN"	"RANDREG"	"75ms"	"Hit"	1.49276	20
"1011"	"10"	5	0.34134	3	63	"2"	34	2.0598	4.201367	"TEN"	"RANDREG"	"75ms"	"Hit"	1.71846	23
"1012"	"10"	5	0.34134	3	64	"2"	27	1.7161	4.201367	"TEN"	"RANDREG"	"75ms"	"Hit"	1.37476	18
"1013"	"10"	5	0.34134	3	67	"2"	8	1.7462	4.201367	"TEN"	"RANDREG"	"75ms"	"Hit"	1.40486	19
"1014"	"10"	5	0.34134	3	73	"2"	17	1.5723	4.201367	"TEN"	"RANDREG"	"75ms"	"Hit"	1.23096	16
"1015"	"10"	5	0.34134	3	76	"2"	31	1.7105	4.201367	"TEN"	"RANDREG"	"75ms"	"Hit"	1.36916	18
"1016"	"10"	5	0.34134	3	77	"2"	16	1.7582	4.201367	"TEN"	"RANDREG"	"75ms"	"Hit"	1.41686	19
"1017"	"10"	5	0.34134	3	78	"2"	18	1.4948	4.201367	"TEN"	"RANDREG"	"75ms"	"Hit"	1.15346	15
"1018"	"10"	5	0.34134	3	79	"2"	21	1.5863	4.201367	"TEN"	"RANDREG"	"75ms"	"Hit"	1.24496	17
"1019"	"11"	4	0.52296	3	2	"2"	22	1.839	3.604818	"TEN"	"RANDREG"	"75ms"	"Hit"	1.31604	18
"1020"	"11"	4	0.52296	3	7	"2"	5	2.0423	3.604818	"TEN"	"RANDREG"	"75ms"	"Hit"	1.51934	20
"1021"	"11"	4	0.52296	3	10	"2"	23	2.0965	3.604818	"TEN"	"RANDREG"	"75ms"	"Hit"	1.57354	21
"1022"	"11"	4	0.52296	3	11	"2"	1	2.1718	3.604818	"TEN"	"RANDREG"	"75ms"	"Hit"	1.64884	22
"1023"	"11"	4	0.52296	3	13	"2"	24	2.2116	3.604818	"TEN"	"RANDREG"	"75ms"	"Hit"	1.68864	23
"1024"	"11"	4	0.52296	3	15	"2"	21	2.0895	3.604818	"TEN"	"RANDREG"	"75ms"	"Hit"	1.56654	21
"1025"	"11"	4	0.52296	3	24	"2"	7	1.4825	3.604818	"TEN"	"RANDREG"	"75ms"	"Hit"	0.95954	13
"1026"	"11"	4	0.52296	3	27	"2"	17	2.0184	3.604818	"TEN"	"RANDREG"	"75ms"	"Hit"	1.49544	20
"1027"	"11"	4	0.52296	3	29	"2"	32	2.2692	3.604818	"TEN"	"RANDREG"	"75ms"	"Hit"	1.74624	23
"1028"	"11"	4	0.52296	3	32	"2"	27	2.2447	3.604818	"TEN"	"RANDREG"	"75ms"	"Hit"	1.72174	23
"1029"	"11"	4	0.52296	3	33	"2"	31	2.389	3.604818	"TEN"	"RANDREG"	"75ms"	"Hit"	1.86604	25
"1030"	"11"	4	0.52296	3	35	"2"	34	2.1987	3.604818	"TEN"	"RANDREG"	"75ms"	"Hit"	1.67574	22
"1031"	"11"	4	0.52296	3	36	"2"	33	1.8828	3.604818	"TEN"	"RANDREG"	"75ms"	"Hit"	1.35984	18
"1032"	"11"	4	0.52296	3	39	"2"	4	2.4221	3.604818	"TEN"	"RANDREG"	"75ms"	"Hit"	1.89914	25
"1033"	"11"	4	0.52296	3	41	"2"	30	1.8922	3.604818	"TEN"	"RANDREG"	"75ms"	"Hit"	1.36924	18
"1034"	"11"	4	0.52296	3	42	"2"	29	2.1659	3.604818	"TEN"	"RANDREG"	"75ms"	"Hit"	1.64294	22
"1035"	"11"	4	0.52296	3	45	"2"	18	2.1774	3.604818	"TEN"	"RANDREG"	"75ms"	"Hit"	1.65444	22
"1037"	"11"	4	0.52296	3	47	"2"	2	1.9087	3.604818	"TEN"	"RANDREG"	"75ms"	"Hit"	1.38574	18
"1038"	"11"	4	0.52296	3	50	"2"	15	1.9958	3.604818	"TEN"	"RANDREG"	"75ms"	"Hit"	1.47284	20
"1039"	"11"	4	0.52296	3	52	"2"	10	1.8397	3.604818	"TEN"	"RANDREG"	"75ms"	"Hit"	1.31674	18
"1040"	"11"	4	0.52296	3	54	"2"	6	2.0282	3.604818	"TEN"	"RANDREG"	"75ms"	"Hit"	1.50524	20
"1041"	"11"	4	0.52296	3	56	"2"	26	2.466	3.604818	"TEN"	"RANDREG"	"75ms"	"Hit"	1.94304	26
"1042"	"11"	4	0.52296	3	61	"2"	8	1.7598	3.604818	"TEN"	"RANDREG"	"75ms"	"Hit"	1.23684	16
"1043"	"11"	4	0.52296	3	62	"2"	9	1.892	3.604818	"TEN"	"RANDREG"	"75ms"	"Hit"	1.36904	18
"1044"	"11"	4	0.52296	3	63	"2"	35	1.8931	3.604818	"TEN"	"RANDREG"	"75ms"	"Hit"	1.37014	18
"1045"	"11"	4	0.52296	3	64	"2"	20	1.8334	3.604818	"TEN"	"RANDREG"	"75ms"	"Hit"	1.31044	17
"1046"	"11"	4	0.52296	3	67	"2"	12	2.2951	3.604818	"TEN"	"RANDREG"	"75ms"	"Hit"	1.77214	24
"1047"	"11"	4	0.52296	3	73	"2"	16	2.5804	3.604818	"TEN"	"RANDREG"	"75ms"	"Hit"	2.05744	27
"1048"	"11"	4	0.52296	3	76	"2"	13	1.8731	3.604818	"TEN"	"RANDREG"	"75ms"	"Hit"	1.35014	18
"1049"	"11"	4	0.52296	3	77	"2"	25	1.6501	3.604818	"TEN"	"RANDREG"	"75ms"	"Hit"	1.12714	15
"1050"	"11"	4	0.52296	3	78	"2"	3	1.7887	3.604818	"TEN"	"RANDREG"	"75ms"	"Hit"	1.26574	17
"1051"	"11"	4	0.52296	3	79	"2"	19	1.9091	3.604818	"TEN"	"RANDREG"	"75ms"	"Hit"	1.38614	18
"1052"	"12"	2	0.34544	3	1	"2"	14	2.0883	4.482805	"TEN"	"RANDREG"	"75ms"	"Hit"	1.74286	23
"1053"	"12"	2	0.34544	3	3	"2"	32	1.5796	4.482805	"TEN"	"RANDREG"	"75ms"	"Hit"	1.23416	16
"1054"	"12"	2	0.34544	3	7	"2"	21	1.8021	4.482805	"TEN"	"RANDREG"	"75ms"	"Hit"	1.45666	19
"1055"	"12"	2	0.34544	3	9	"2"	24	1.7406	4.482805	"TEN"	"RANDREG"	"75ms"	"Hit"	1.39516	19
"1056"	"12"	2	0.34544	3	10	"2"	17	2.0131	4.482805	"TEN"	"RANDREG"	"75ms"	"Hit"	1.66766	22
"1057"	"12"	2	0.34544	3	11	"2"	22	1.9331	4.482805	"TEN"	"RANDREG"	"75ms"	"Hit"	1.58766	21
"1058"	"12"	2	0.34544	3	13	"2"	9	1.8425	4.482805	"TEN"	"RANDREG"	"75ms"	"Hit"	1.49706	20
"1059"	"12"	2	0.34544	3	14	"2"	3	1.4771	4.482805	"TEN"	"RANDREG"	"75ms"	"Hit"	1.13166	15
"1060"	"12"	2	0.34544	3	16	"2"	12	1.5767	4.482805	"TEN"	"RANDREG"	"75ms"	"Hit"	1.23126	16
"1061"	"12"	2	0.34544	3	18	"2"	30	1.2807	4.482805	"TEN"	"RANDREG"	"75ms"	"Hit"	0.93526	12
"1062"	"12"	2	0.34544	3	21	"2"	5	1.6331	4.482805	"TEN"	"RANDREG"	"75ms"	"Hit"	1.28766	17
"1063"	"12"	2	0.34544	3	22	"2"	26	1.6793	4.482805	"TEN"	"RANDREG"	"75ms"	"Hit"	1.33386	18
"1064"	"12"	2	0.34544	3	23	"2"	29	1.8228	4.482805	"TEN"	"RANDREG"	"75ms"	"Hit"	1.47736	20
"1065"	"12"	2	0.34544	3	24	"2"	19	1.7598	4.482805	"TEN"	"RANDREG"	"75ms"	"Hit"	1.41436	19
"1066"	"12"	2	0.34544	3	26	"2"	8	2.0516	4.482805	"TEN"	"RANDREG"	"75ms"	"Hit"	1.70616	23
"1067"	"12"	2	0.34544	3	27	"2"	16	1.892	4.482805	"TEN"	"RANDREG"	"75ms"	"Hit"	1.54656	21
"1068"	"12"	2	0.34544	3	28	"2"	15	1.5052	4.482805	"TEN"	"RANDREG"	"75ms"	"Hit"	1.15976	15
"1069"	"12"	2	0.34544	3	29	"2"	13	1.9016	4.482805	"TEN"	"RANDREG"	"75ms"	"Hit"	1.55616	21
"1070"	"12"	2	0.34544	3	32	"2"	18	2.2069	4.482805	"TEN"	"RANDREG"	"75ms"	"Hit"	1.86146	25
"1071"	"12"	2	0.34544	3	33	"2"	35	1.6328	4.482805	"TEN"	"RANDREG"	"75ms"	"Hit"	1.28736	17
"1072"	"12"	2	0.34544	3	37	"2"	2	1.8898	4.482805	"TEN"	"RANDREG"	"75ms"	"Hit"	1.54436	21
"1073"	"12"	2	0.34544	3	38	"2"	6	1.724	4.482805	"TEN"	"RANDREG"	"75ms"	"Hit"	1.37856	18
"1074"	"12"	2	0.34544	3	40	"2"	4	2.058	4.482805	"TEN"	"RANDREG"	"75ms"	"Hit"	1.71256	23
"1075"	"12"	2	0.34544	3	46	"2"	33	1.2873	4.482805	"TEN"	"RANDREG"	"75ms"	"Hit"	0.94186	13
"1076"	"12"	2	0.34544	3	47	"2"	28	1.751	4.482805	"TEN"	"RANDREG"	"75ms"	"Hit"	1.40556	19
"1077"	"12"	2	0.34544	3	48	"2"	10	1.695	4.482805	"TEN"	"RANDREG"	"75ms"	"Hit"	1.34956	18
"1078"	"12"	2	0.34544	3	51	"2"	25	2.0878	4.482805	"TEN"	"RANDREG"	"75ms"	"Hit"	1.74236	23
"1079"	"12"	2	0.34544	3	53	"2"	31	1.8168	4.482805	"TEN"	"RANDREG"	"75ms"	"Hit"	1.47136	20
"1080"	"12"	2	0.34544	3	61	"2"	7	1.8038	4.482805	"TEN"	"RANDREG"	"75ms"	"Hit"	1.45836	19
"1081"	"12"	2	0.34544	3	63	"2"	1	2.1202	4.482805	"TEN"	"RANDREG"	"75ms"	"Hit"	1.77476	24
"1082"	"12"	2	0.34544	3	66	"2"	23	1.9289	4.482805	"TEN"	"RANDREG"	"75ms"	"Hit"	1.58346	21
"1083"	"12"	2	0.34544	3	67	"2"	27	2.0192	4.482805	"TEN"	"RANDREG"	"75ms"	"Hit"	1.67376	22
"1084"	"12"	2	0.34544	3	75	"2"	11	1.6373	4.482805	"TEN"	"RANDREG"	"75ms"	"Hit"	1.29186	17
"1085"	"12"	2	0.34544	3	76	"2"	34	2.0433	4.482805	"TEN"	"RANDREG"	"75ms"	"Hit"	1.69786	23
"1086"	"12"	2	0.34544	3	80	"2"	20	2.2606	4.482805	"TEN"	"RANDREG"	"75ms"	"Hit"	1.91516	26
"1087"	"13"	3	0.3642	3	3	"2"	21	1.8422	3.680934	"TEN"	"RANDREG"	"75ms"	"Hit"	1.478	20
"1088"	"13"	3	0.3642	3	4	"2"	17	2.0162	3.680934	"TEN"	"RANDREG"	"75ms"	"Hit"	1.652	22
"1089"	"13"	3	0.3642	3	6	"2"	29	1.975	3.680934	"TEN"	"RANDREG"	"75ms"	"Hit"	1.6108	21
"1090"	"13"	3	0.3642	3	8	"2"	13	1.9595	3.680934	"TEN"	"RANDREG"	"75ms"	"Hit"	1.5953	21
"1091"	"13"	3	0.3642	3	14	"2"	8	2.0011	3.680934	"TEN"	"RANDREG"	"75ms"	"Hit"	1.6369	22
"1092"	"13"	3	0.3642	3	16	"2"	12	2.088	3.680934	"TEN"	"RANDREG"	"75ms"	"Hit"	1.7238	23
"1093"	"13"	3	0.3642	3	17	"2"	10	1.8421	3.680934	"TEN"	"RANDREG"	"75ms"	"Hit"	1.4779	20
"1094"	"13"	3	0.3642	3	18	"2"	14	1.9739	3.680934	"TEN"	"RANDREG"	"75ms"	"Hit"	1.6097	21
"1095"	"13"	3	0.3642	3	19	"2"	9	1.547	3.680934	"TEN"	"RANDREG"	"75ms"	"Hit"	1.1828	16
"1096"	"13"	3	0.3642	3	20	"2"	16	2.3046	3.680934	"TEN"	"RANDREG"	"75ms"	"Hit"	1.9404	26
"1097"	"13"	3	0.3642	3	22	"2"	7	2.0712	3.680934	"TEN"	"RANDREG"	"75ms"	"Hit"	1.707	23
"1098"	"13"	3	0.3642	3	24	"2"	18	1.8314	3.680934	"TEN"	"RANDREG"	"75ms"	"Hit"	1.4672	20
"1099"	"13"	3	0.3642	3	26	"2"	31	1.5679	3.680934	"TEN"	"RANDREG"	"75ms"	"Hit"	1.2037	16
"1100"	"13"	3	0.3642	3	27	"2"	5	1.4583	3.680934	"TEN"	"RANDREG"	"75ms"	"Hit"	1.0941	15
"1101"	"13"	3	0.3642	3	29	"2"	30	2.0783	3.680934	"TEN"	"RANDREG"	"75ms"	"Hit"	1.7141	23
"1102"	"13"	3	0.3642	3	34	"2"	1	1.6507	3.680934	"TEN"	"RANDREG"	"75ms"	"Hit"	1.2865	17
"1103"	"13"	3	0.3642	3	35	"2"	3	1.6642	3.680934	"TEN"	"RANDREG"	"75ms"	"Hit"	1.3	17
"1104"	"13"	3	0.3642	3	36	"2"	15	1.8896	3.680934	"TEN"	"RANDREG"	"75ms"	"Hit"	1.5254	20
"1105"	"13"	3	0.3642	3	37	"2"	27	1.4523	3.680934	"TEN"	"RANDREG"	"75ms"	"Hit"	1.0881	15
"1106"	"13"	3	0.3642	3	39	"2"	25	2.07	3.680934	"TEN"	"RANDREG"	"75ms"	"Hit"	1.7058	23
"1107"	"13"	3	0.3642	3	41	"2"	4	1.7911	3.680934	"TEN"	"RANDREG"	"75ms"	"Hit"	1.4269	19
"1108"	"13"	3	0.3642	3	42	"2"	11	2.0956	3.680934	"TEN"	"RANDREG"	"75ms"	"Hit"	1.7314	23
"1109"	"13"	3	0.3642	3	46	"2"	35	1.7622	3.680934	"TEN"	"RANDREG"	"75ms"	"Hit"	1.398	19
"1110"	"13"	3	0.3642	3	50	"2"	22	1.8629	3.680934	"TEN"	"RANDREG"	"75ms"	"Hit"	1.4987	20
"1111"	"13"	3	0.3642	3	53	"2"	34	1.9222	3.680934	"TEN"	"RANDREG"	"75ms"	"Hit"	1.558	21
"1112"	"13"	3	0.3642	3	54	"2"	6	2.4634	3.680934	"TEN"	"RANDREG"	"75ms"	"Hit"	2.0992	28
"1113"	"13"	3	0.3642	3	55	"2"	28	1.8133	3.680934	"TEN"	"RANDREG"	"75ms"	"Hit"	1.4491	19
"1114"	"13"	3	0.3642	3	56	"2"	26	1.8604	3.680934	"TEN"	"RANDREG"	"75ms"	"Hit"	1.4962	20
"1115"	"13"	3	0.3642	3	58	"2"	33	1.5839	3.680934	"TEN"	"RANDREG"	"75ms"	"Hit"	1.2197	16
"1116"	"13"	3	0.3642	3	62	"2"	24	2.1506	3.680934	"TEN"	"RANDREG"	"75ms"	"Hit"	1.7864	24
"1117"	"13"	3	0.3642	3	63	"2"	23	2.167	3.680934	"TEN"	"RANDREG"	"75ms"	"Hit"	1.8028	24
"1118"	"13"	3	0.3642	3	66	"2"	32	1.2505	3.680934	"TEN"	"RANDREG"	"75ms"	"Hit"	0.8863	12
"1119"	"13"	3	0.3642	3	68	"2"	19	1.671	3.680934	"TEN"	"RANDREG"	"75ms"	"Hit"	1.3068	17
"1120"	"13"	3	0.3642	3	69	"2"	20	1.5542	3.680934	"TEN"	"RANDREG"	"75ms"	"Hit"	1.19	16
"1121"	"13"	3	0.3642	3	72	"2"	2	1.398	3.680934	"TEN"	"RANDREG"	"75ms"	"Hit"	1.0338	14
"1122"	"2"	1	0.48294	3	6	"2"	22	1.5791	2.859004	"TEN"	"RANDREG"	"75ms"	"Hit"	1.09616	15
"1123"	"2"	1	0.48294	3	7	"2"	1	1.8903	2.859004	"TEN"	"RANDREG"	"75ms"	"Hit"	1.40736	19
"1124"	"2"	1	0.48294	3	9	"2"	17	1.7222	2.859004	"TEN"	"RANDREG"	"75ms"	"Hit"	1.23926	17
"1125"	"2"	1	0.48294	3	10	"2"	13	1.82	2.859004	"TEN"	"RANDREG"	"75ms"	"Hit"	1.33706	18
"1126"	"2"	1	0.48294	3	11	"2"	15	1.2563	2.859004	"TEN"	"RANDREG"	"75ms"	"Hit"	0.77336	10
"1127"	"2"	1	0.48294	3	13	"2"	32	1.4371	2.859004	"TEN"	"RANDREG"	"75ms"	"Hit"	0.95416	13
"1128"	"2"	1	0.48294	3	14	"2"	18	1.1239	2.859004	"TEN"	"RANDREG"	"75ms"	"Hit"	0.64096	9
"1129"	"2"	1	0.48294	3	17	"2"	25	1.8618	2.859004	"TEN"	"RANDREG"	"75ms"	"Hit"	1.37886	18
"1130"	"2"	1	0.48294	3	19	"2"	21	2.0928	2.859004	"TEN"	"RANDREG"	"75ms"	"Hit"	1.60986	21
"1131"	"2"	1	0.48294	3	22	"2"	7	1.7584	2.859004	"TEN"	"RANDREG"	"75ms"	"Hit"	1.27546	17
"1134"	"2"	1	0.48294	3	31	"2"	20	1.8569	2.859004	"TEN"	"RANDREG"	"75ms"	"Hit"	1.37396	18
"1135"	"2"	1	0.48294	3	34	"2"	16	1.3065	2.859004	"TEN"	"RANDREG"	"75ms"	"Hit"	0.82356	11
"1136"	"2"	1	0.48294	3	35	"2"	27	1.6186	2.859004	"TEN"	"RANDREG"	"75ms"	"Hit"	1.13566	15
"1137"	"2"	1	0.48294	3	36	"2"	19	1.422	2.859004	"TEN"	"RANDREG"	"75ms"	"Hit"	0.93906	13
"1138"	"2"	1	0.48294	3	42	"2"	5	1.5875	2.859004	"TEN"	"RANDREG"	"75ms"	"Hit"	1.10456	15
"1139"	"2"	1	0.48294	3	45	"2"	26	1.5663	2.859004	"TEN"	"RANDREG"	"75ms"	"Hit"	1.08336	14
"1140"	"2"	1	0.48294	3	50	"2"	28	1.7001	2.859004	"TEN"	"RANDREG"	"75ms"	"Hit"	1.21716	16
"1141"	"2"	1	0.48294	3	51	"2"	29	1.4788	2.859004	"TEN"	"RANDREG"	"75ms"	"Hit"	0.99586	13
"1142"	"2"	1	0.48294	3	54	"2"	8	1.7379	2.859004	"TEN"	"RANDREG"	"75ms"	"Hit"	1.25496	17
"1143"	"2"	1	0.48294	3	55	"2"	35	1.6022	2.859004	"TEN"	"RANDREG"	"75ms"	"Hit"	1.11926	15
"1144"	"2"	1	0.48294	3	57	"2"	33	1.4185	2.859004	"TEN"	"RANDREG"	"75ms"	"Hit"	0.93556	12
"1145"	"2"	1	0.48294	3	59	"2"	2	1.5079	2.859004	"TEN"	"RANDREG"	"75ms"	"Hit"	1.02496	14
"1146"	"2"	1	0.48294	3	60	"2"	11	1.2544	2.859004	"TEN"	"RANDREG"	"75ms"	"Hit"	0.77146	10
"1147"	"2"	1	0.48294	3	63	"2"	4	1.3	2.859004	"TEN"	"RANDREG"	"75ms"	"Hit"	0.81706	11
"1148"	"2"	1	0.48294	3	70	"2"	30	2.0683	2.859004	"TEN"	"RANDREG"	"75ms"	"Hit"	1.58536	21
"1149"	"2"	1	0.48294	3	74	"2"	14	1.7464	2.859004	"TEN"	"RANDREG"	"75ms"	"Hit"	1.26346	17
"1150"	"2"	1	0.48294	3	75	"2"	31	1.572	2.859004	"TEN"	"RANDREG"	"75ms"	"Hit"	1.08906	15
"1151"	"2"	1	0.48294	3	76	"2"	6	1.5787	2.859004	"TEN"	"RANDREG"	"75ms"	"Hit"	1.09576	15
"1152"	"2"	1	0.48294	3	77	"2"	23	1.7012	2.859004	"TEN"	"RANDREG"	"75ms"	"Hit"	1.21826	16
"1153"	"2"	1	0.48294	3	78	"2"	9	1.6259	2.859004	"TEN"	"RANDREG"	"75ms"	"Hit"	1.14296	15
"1154"	"2"	1	0.48294	3	80	"2"	24	1.7189	2.859004	"TEN"	"RANDREG"	"75ms"	"Hit"	1.23596	16
"1155"	"3"	5	0.34228	3	3	"2"	7	2.354	2.80055	"TEN"	"RANDREG"	"75ms"	"Hit"	2.01172	27
"1158"	"3"	5	0.34228	3	14	"2"	20	2.0181	2.80055	"TEN"	"RANDREG"	"75ms"	"Hit"	1.67582	22
"1159"	"3"	5	0.34228	3	16	"2"	24	1.7674	2.80055	"TEN"	"RANDREG"	"75ms"	"Hit"	1.42512	19
"1160"	"3"	5	0.34228	3	17	"2"	29	2.0403	2.80055	"TEN"	"RANDREG"	"75ms"	"Hit"	1.69802	23
"1162"	"3"	5	0.34228	3	19	"2"	14	1.5467	2.80055	"TEN"	"RANDREG"	"75ms"	"Hit"	1.20442	16
"1164"	"3"	5	0.34228	3	22	"2"	25	1.6586	2.80055	"TEN"	"RANDREG"	"75ms"	"Hit"	1.31632	18
"1165"	"3"	5	0.34228	3	26	"2"	26	1.7731	2.80055	"TEN"	"RANDREG"	"75ms"	"Hit"	1.43082	19
"1166"	"3"	5	0.34228	3	27	"2"	19	1.5472	2.80055	"TEN"	"RANDREG"	"75ms"	"Hit"	1.20492	16
"1167"	"3"	5	0.34228	3	29	"2"	22	2.1566	2.80055	"TEN"	"RANDREG"	"75ms"	"Hit"	1.81432	24
"1168"	"3"	5	0.34228	3	34	"2"	5	1.9515	2.80055	"TEN"	"RANDREG"	"75ms"	"Hit"	1.60922	21
"1169"	"3"	5	0.34228	3	35	"2"	8	2.343	2.80055	"TEN"	"RANDREG"	"75ms"	"Hit"	2.00072	27
"1170"	"3"	5	0.34228	3	36	"2"	35	1.6135	2.80055	"TEN"	"RANDREG"	"75ms"	"Hit"	1.27122	17
"1171"	"3"	5	0.34228	3	37	"2"	21	1.614	2.80055	"TEN"	"RANDREG"	"75ms"	"Hit"	1.27172	17
"1173"	"3"	5	0.34228	3	42	"2"	17	1.9394	2.80055	"TEN"	"RANDREG"	"75ms"	"Hit"	1.59712	21
"1174"	"3"	5	0.34228	3	46	"2"	10	2.4504	2.80055	"TEN"	"RANDREG"	"75ms"	"Hit"	2.10812	28
"1175"	"3"	5	0.34228	3	50	"2"	31	2.1454	2.80055	"TEN"	"RANDREG"	"75ms"	"Hit"	1.80312	24
"1176"	"3"	5	0.34228	3	53	"2"	12	1.715	2.80055	"TEN"	"RANDREG"	"75ms"	"Hit"	1.37272	18
"1177"	"3"	5	0.34228	3	54	"2"	1	1.7995	2.80055	"TEN"	"RANDREG"	"75ms"	"Hit"	1.45722	19
"1178"	"3"	5	0.34228	3	55	"2"	23	1.8714	2.80055	"TEN"	"RANDREG"	"75ms"	"Hit"	1.52912	20
"1179"	"3"	5	0.34228	3	56	"2"	18	1.9054	2.80055	"TEN"	"RANDREG"	"75ms"	"Hit"	1.56312	21
"1180"	"3"	5	0.34228	3	58	"2"	13	1.6808	2.80055	"TEN"	"RANDREG"	"75ms"	"Hit"	1.33852	18
"1182"	"3"	5	0.34228	3	66	"2"	30	2.0313	2.80055	"TEN"	"RANDREG"	"75ms"	"Hit"	1.68902	23
"1183"	"3"	5	0.34228	3	68	"2"	27	2.2307	2.80055	"TEN"	"RANDREG"	"75ms"	"Hit"	1.88842	25
"1184"	"3"	5	0.34228	3	69	"2"	3	2.4208	2.80055	"TEN"	"RANDREG"	"75ms"	"Hit"	2.07852	28
"1185"	"4"	5	0.37036	3	3	"2"	4	2.1505	3.680934	"TEN"	"RANDREG"	"75ms"	"Hit"	1.78014	24
"1186"	"4"	5	0.37036	3	4	"2"	29	2.4235	3.680934	"TEN"	"RANDREG"	"75ms"	"Hit"	2.05314	27
"1187"	"4"	5	0.37036	3	6	"2"	13	1.6274	3.680934	"TEN"	"RANDREG"	"75ms"	"Hit"	1.25704	17
"1188"	"4"	5	0.37036	3	8	"2"	22	1.7291	3.680934	"TEN"	"RANDREG"	"75ms"	"Hit"	1.35874	18
"1189"	"4"	5	0.37036	3	14	"2"	3	1.5105	3.680934	"TEN"	"RANDREG"	"75ms"	"Hit"	1.14014	15
"1190"	"4"	5	0.37036	3	16	"2"	16	1.9589	3.680934	"TEN"	"RANDREG"	"75ms"	"Hit"	1.58854	21
"1191"	"4"	5	0.37036	3	17	"2"	19	2.1663	3.680934	"TEN"	"RANDREG"	"75ms"	"Hit"	1.79594	24
"1192"	"4"	5	0.37036	3	18	"2"	6	1.7913	3.680934	"TEN"	"RANDREG"	"75ms"	"Hit"	1.42094	19
"1193"	"4"	5	0.37036	3	19	"2"	15	1.9197	3.680934	"TEN"	"RANDREG"	"75ms"	"Hit"	1.54934	21
"1194"	"4"	5	0.37036	3	20	"2"	5	1.771	3.680934	"TEN"	"RANDREG"	"75ms"	"Hit"	1.40064	19
"1195"	"4"	5	0.37036	3	22	"2"	12	1.447	3.680934	"TEN"	"RANDREG"	"75ms"	"Hit"	1.07664	14
"1196"	"4"	5	0.37036	3	24	"2"	25	1.3542	3.680934	"TEN"	"RANDREG"	"75ms"	"Hit"	0.98384	13
"1197"	"4"	5	0.37036	3	26	"2"	31	1.5928	3.680934	"TEN"	"RANDREG"	"75ms"	"Hit"	1.22244	16
"1198"	"4"	5	0.37036	3	27	"2"	28	1.7299	3.680934	"TEN"	"RANDREG"	"75ms"	"Hit"	1.35954	18
"1199"	"4"	5	0.37036	3	29	"2"	18	2.0041	3.680934	"TEN"	"RANDREG"	"75ms"	"Hit"	1.63374	22
"1200"	"4"	5	0.37036	3	34	"2"	1	1.5835	3.680934	"TEN"	"RANDREG"	"75ms"	"Hit"	1.21314	16
"1201"	"4"	5	0.37036	3	35	"2"	23	1.6109	3.680934	"TEN"	"RANDREG"	"75ms"	"Hit"	1.24054	17
"1203"	"4"	5	0.37036	3	37	"2"	20	1.4122	3.680934	"TEN"	"RANDREG"	"75ms"	"Hit"	1.04184	14
"1204"	"4"	5	0.37036	3	39	"2"	26	1.106	3.680934	"TEN"	"RANDREG"	"75ms"	"Hit"	0.73564	10
"1205"	"4"	5	0.37036	3	41	"2"	11	1.3225	3.680934	"TEN"	"RANDREG"	"75ms"	"Hit"	0.95214	13
