subj	 block	 speed	 trialN	 condi	 setID	 RTs	 response	 dprime	 correct
1	1	1	1	3	4	NaN	2	3.919928 	1
1	1	1	2	4	2	0.6286	1	3.919928 	1
1	1	1	3	1	33	2.5149	-1	3.919928 	0
1	1	1	4	1	30	NaN	2	3.919928 	1
1	1	1	5	1	27	NaN	2	3.919928 	1
1	1	1	6	2	18	1.0540	1	3.919928 	1
1	1	1	7	2	16	0.9884	1	3.919928 	1
1	1	1	8	1	34	NaN	2	3.919928 	1
1	1	1	9	2	4	0.8515	1	3.919928 	1
1	1	1	10	2	29	0.9833	1	3.919928 	1
1	1	1	11	2	14	0.9926	1	3.919928 	1
1	1	1	12	1	4	NaN	2	3.919928 	1
1	1	1	13	2	2	0.9484	1	3.919928 	1
1	1	1	14	2	10	0.9763	1	3.919928 	1
1	1	1	15	1	6	NaN	2	3.919928 	1
1	1	1	16	1	23	NaN	2	3.919928 	1
1	1	1	17	2	28	0.9279	1	3.919928 	1
1	1	1	18	1	12	NaN	2	3.919928 	1
1	1	1	19	2	22	0.9176	1	3.919928 	1
1	1	1	20	3	1	NaN	2	3.919928 	1
1	1	1	21	1	7	NaN	2	3.919928 	1
1	1	1	22	2	23	1.0124	1	3.919928 	1
1	1	1	23	1	3	NaN	2	3.919928 	1
1	1	1	24	1	5	NaN	2	3.919928 	1
1	1	1	25	1	24	NaN	2	3.919928 	1
1	1	1	26	1	18	NaN	2	3.919928 	1
1	1	1	27	2	15	0.9365	1	3.919928 	1
1	1	1	28	1	20	NaN	2	3.919928 	1
1	1	1	29	2	32	1.1024	1	3.919928 	1
1	1	1	30	1	9	NaN	2	3.919928 	1
1	1	1	31	2	9	0.9352	1	3.919928 	1
1	1	1	32	2	26	1.0067	1	3.919928 	1
1	1	1	33	1	25	NaN	2	3.919928 	1
1	1	1	34	2	27	0.8971	1	3.919928 	1
1	1	1	35	2	33	0.7966	1	3.919928 	1
1	1	1	36	2	24	0.9498	1	3.919928 	1
1	1	1	37	1	29	NaN	2	3.919928 	1
1	1	1	38	1	35	NaN	2	3.919928 	1
1	1	1	39	1	16	NaN	2	3.919928 	1
1	1	1	40	2	21	1.0338	1	3.919928 	1
1	1	1	41	3	5	NaN	2	3.919928 	1
1	1	1	42	2	31	1.0076	1	3.919928 	1
1	1	1	43	4	5	0.4115	1	3.919928 	1
1	1	1	44	1	19	NaN	2	3.919928 	1
1	1	1	45	2	30	1.1119	1	3.919928 	1
1	1	1	46	1	13	NaN	2	3.919928 	1
1	1	1	47	1	15	NaN	2	3.919928 	1
1	1	1	48	4	1	0.6604	1	3.919928 	1
1	1	1	49	1	31	NaN	2	3.919928 	1
1	1	1	50	2	6	0.9274	1	3.919928 	1
1	1	1	51	2	11	NaN	0	3.919928 	0
1	1	1	52	1	1	NaN	2	3.919928 	1
1	1	1	53	1	28	NaN	2	3.919928 	1
1	1	1	54	2	5	1.0204	1	3.919928 	1
1	1	1	55	2	19	0.9530	1	3.919928 	1
1	1	1	56	1	22	NaN	2	3.919928 	1
1	1	1	57	2	7	0.7995	1	3.919928 	1
1	1	1	58	3	3	NaN	2	3.919928 	1
1	1	1	59	2	34	1.2299	1	3.919928 	1
1	1	1	60	2	12	0.8417	1	3.919928 	1
1	1	1	61	1	2	NaN	2	3.919928 	1
1	1	1	62	3	2	NaN	2	3.919928 	1
1	1	1	63	2	35	0.8795	1	3.919928 	1
1	1	1	64	1	11	NaN	2	3.919928 	1
1	1	1	65	1	14	NaN	2	3.919928 	1
1	1	1	66	1	32	NaN	2	3.919928 	1
1	1	1	67	1	21	NaN	2	3.919928 	1
1	1	1	68	4	3	0.3243	1	3.919928 	1
1	1	1	69	1	17	NaN	2	3.919928 	1
1	1	1	70	2	17	0.8072	1	3.919928 	1
1	1	1	71	1	10	NaN	2	3.919928 	1
1	1	1	72	1	8	NaN	2	3.919928 	1
1	1	1	73	1	26	NaN	2	3.919928 	1
1	1	1	74	2	20	1.0461	1	3.919928 	1
1	1	1	75	2	13	0.9405	1	3.919928 	1
1	1	1	76	2	8	0.8971	1	3.919928 	1
1	1	1	77	2	25	0.8594	1	3.919928 	1
1	1	1	78	2	3	0.9740	1	3.919928 	1
1	1	1	79	4	4	0.4190	1	3.919928 	1
1	1	1	80	2	1	0.8638	1	3.919928 	1
1	2	4	1	1	19	NaN	2	3.888401 	1
1	2	4	2	1	5	NaN	2	3.888401 	1
1	2	4	3	1	15	NaN	2	3.888401 	1
1	2	4	4	2	31	1.2624	1	3.888401 	1
1	2	4	5	1	1	NaN	2	3.888401 	1
1	2	4	6	1	35	NaN	2	3.888401 	1
1	2	4	7	2	3	1.1091	1	3.888401 	1
1	2	4	8	1	26	NaN	2	3.888401 	1
1	2	4	9	1	28	NaN	2	3.888401 	1
1	2	4	10	2	17	1.4027	1	3.888401 	1
1	2	4	11	2	33	1.3640	1	3.888401 	1
1	2	4	12	2	5	1.2401	1	3.888401 	1
1	2	4	13	4	1	0.4334	1	3.888401 	1
1	2	4	14	2	15	1.4856	1	3.888401 	1
1	2	4	15	3	4	NaN	2	3.888401 	1
1	2	4	16	4	5	0.2917	1	3.888401 	1
1	2	4	17	3	5	NaN	2	3.888401 	1
1	2	4	18	2	28	1.2204	1	3.888401 	1
1	2	4	19	1	21	NaN	2	3.888401 	1
1	2	4	20	2	9	1.3408	1	3.888401 	1
1	2	4	21	1	2	NaN	2	3.888401 	1
1	2	4	22	2	24	1.3589	1	3.888401 	1
1	2	4	23	1	22	NaN	2	3.888401 	1
1	2	4	24	1	18	NaN	2	3.888401 	1
1	2	4	25	1	4	NaN	2	3.888401 	1
1	2	4	26	2	32	1.2673	1	3.888401 	1
1	2	4	27	2	11	1.4370	1	3.888401 	1
1	2	4	28	1	31	NaN	2	3.888401 	1
1	2	4	29	2	1	1.1756	1	3.888401 	1
1	2	4	30	4	3	0.6065	1	3.888401 	1
1	2	4	31	1	30	NaN	2	3.888401 	1
1	2	4	32	1	29	NaN	2	3.888401 	1
1	2	4	33	1	10	NaN	2	3.888401 	1
1	2	4	34	1	25	NaN	2	3.888401 	1
1	2	4	35	3	2	NaN	2	3.888401 	1
1	2	4	36	2	21	1.5185	1	3.888401 	1
1	2	4	37	2	20	1.4588	1	3.888401 	1
1	2	4	38	2	30	1.4581	1	3.888401 	1
1	2	4	39	2	10	-1.2604	-2	3.888401 	0
1	2	4	40	2	23	1.3952	1	3.888401 	1
1	2	4	41	1	12	NaN	2	3.888401 	1
1	2	4	42	1	6	NaN	2	3.888401 	1
1	2	4	43	2	2	1.2016	1	3.888401 	1
1	2	4	44	4	4	0.5449	1	3.888401 	1
1	2	4	45	2	22	1.2309	1	3.888401 	1
1	2	4	46	3	1	NaN	2	3.888401 	1
1	2	4	47	1	20	NaN	2	3.888401 	1
1	2	4	48	1	14	4.1060	-1	3.888401 	0
1	2	4	49	2	14	1.1867	1	3.888401 	1
1	2	4	50	2	16	1.5547	1	3.888401 	1
1	2	4	51	2	29	1.3847	1	3.888401 	1
1	2	4	52	1	3	NaN	2	3.888401 	1
1	2	4	53	1	32	NaN	2	3.888401 	1
1	2	4	54	2	13	1.1663	1	3.888401 	1
1	2	4	55	1	17	NaN	2	3.888401 	1
1	2	4	56	2	6	1.5766	1	3.888401 	1
1	2	4	57	2	34	1.1501	1	3.888401 	1
1	2	4	58	1	27	NaN	2	3.888401 	1
1	2	4	59	1	16	NaN	2	3.888401 	1
1	2	4	60	2	19	1.5837	1	3.888401 	1
1	2	4	61	1	34	NaN	2	3.888401 	1
1	2	4	62	2	4	1.2584	1	3.888401 	1
1	2	4	63	2	26	1.3592	1	3.888401 	1
1	2	4	64	2	7	1.1496	1	3.888401 	1
1	2	4	65	3	3	NaN	2	3.888401 	1
1	2	4	66	1	33	NaN	2	3.888401 	1
1	2	4	67	1	23	NaN	2	3.888401 	1
1	2	4	68	2	8	1.5051	1	3.888401 	1
1	2	4	69	1	9	NaN	2	3.888401 	1
1	2	4	70	2	35	1.6067	1	3.888401 	1
1	2	4	71	2	25	1.2499	1	3.888401 	1
1	2	4	72	1	7	NaN	2	3.888401 	1
1	2	4	73	2	18	1.2374	1	3.888401 	1
1	2	4	74	1	11	NaN	2	3.888401 	1
1	2	4	75	1	24	NaN	2	3.888401 	1
1	2	4	76	2	12	1.1506	1	3.888401 	1
1	2	4	77	1	13	NaN	2	3.888401 	1
1	2	4	78	1	8	NaN	2	3.888401 	1
1	2	4	79	4	2	0.2667	1	3.888401 	1
1	2	4	80	2	27	1.2525	1	3.888401 	1
1	3	3	1	2	22	2.4073	1	3.241516 	1
1	3	3	2	2	29	0.4355	1	3.241516 	1
1	3	3	3	2	30	1.7166	1	3.241516 	1
1	3	3	4	1	23	6.6303	-1	3.241516 	0
1	3	3	5	1	8	NaN	2	3.241516 	1
1	3	3	6	2	35	2.2737	1	3.241516 	1
1	3	3	7	1	29	NaN	2	3.241516 	1
1	3	3	8	4	3	0.4093	1	3.241516 	1
1	3	3	9	2	26	1.9969	1	3.241516 	1
1	3	3	10	2	19	1.7486	1	3.241516 	1
1	3	3	11	4	5	0.4088	1	3.241516 	1
1	3	3	12	2	20	1.7576	1	3.241516 	1
1	3	3	13	1	28	NaN	2	3.241516 	1
1	3	3	14	2	16	1.6018	1	3.241516 	1
1	3	3	15	2	11	1.7924	1	3.241516 	1
1	3	3	16	1	32	NaN	2	3.241516 	1
1	3	3	17	2	7	1.9928	1	3.241516 	1
1	3	3	18	1	20	NaN	2	3.241516 	1
1	3	3	19	2	13	1.9426	1	3.241516 	1
1	3	3	20	1	7	NaN	2	3.241516 	1
1	3	3	21	1	21	NaN	2	3.241516 	1
1	3	3	22	1	16	NaN	2	3.241516 	1
1	3	3	23	2	28	1.8102	1	3.241516 	1
1	3	3	24	1	30	NaN	2	3.241516 	1
1	3	3	25	1	19	NaN	2	3.241516 	1
1	3	3	26	2	23	2.2542	1	3.241516 	1
1	3	3	27	1	4	NaN	2	3.241516 	1
1	3	3	28	2	24	1.6603	1	3.241516 	1
1	3	3	29	3	1	NaN	2	3.241516 	1
1	3	3	30	1	33	NaN	2	3.241516 	1
1	3	3	31	1	15	NaN	2	3.241516 	1
1	3	3	32	2	10	1.5458	1	3.241516 	1
1	3	3	33	3	2	NaN	2	3.241516 	1
1	3	3	34	1	26	NaN	2	3.241516 	1
1	3	3	35	2	8	1.7244	1	3.241516 	1
1	3	3	36	1	14	NaN	2	3.241516 	1
1	3	3	37	2	33	1.7278	1	3.241516 	1
1	3	3	38	1	10	NaN	2	3.241516 	1
1	3	3	39	1	3	NaN	2	3.241516 	1
1	3	3	40	1	12	NaN	2	3.241516 	1
1	3	3	41	1	6	NaN	2	3.241516 	1
1	3	3	42	1	11	NaN	2	3.241516 	1
1	3	3	43	2	9	1.5912	1	3.241516 	1
1	3	3	44	2	14	1.4578	1	3.241516 	1
1	3	3	45	1	13	NaN	2	3.241516 	1
1	3	3	46	2	32	1.8607	1	3.241516 	1
1	3	3	47	1	35	NaN	2	3.241516 	1
1	3	3	48	2	25	1.9915	1	3.241516 	1
1	3	3	49	1	17	NaN	2	3.241516 	1
1	3	3	50	1	18	NaN	2	3.241516 	1
1	3	3	51	2	21	2.1353	1	3.241516 	1
1	3	3	52	1	27	NaN	2	3.241516 	1
1	3	3	53	1	1	8.4737	-1	3.241516 	0
1	3	3	54	2	17	1.6739	1	3.241516 	1
1	3	3	55	1	34	NaN	2	3.241516 	1
1	3	3	56	2	3	2.1332	1	3.241516 	1
1	3	3	57	1	9	NaN	2	3.241516 	1
1	3	3	58	1	25	NaN	2	3.241516 	1
1	3	3	59	2	27	1.6699	1	3.241516 	1
1	3	3	60	1	2	NaN	2	3.241516 	1
1	3	3	61	2	15	1.6731	1	3.241516 	1
1	3	3	62	3	4	NaN	2	3.241516 	1
1	3	3	63	4	1	0.2783	1	3.241516 	1
1	3	3	64	2	31	1.8612	1	3.241516 	1
1	3	3	65	3	3	NaN	2	3.241516 	1
1	3	3	66	2	4	1.9862	1	3.241516 	1
1	3	3	67	2	1	2.0216	1	3.241516 	1
1	3	3	68	1	31	4.3929	-1	3.241516 	0
1	3	3	69	1	24	NaN	2	3.241516 	1
1	3	3	70	1	5	NaN	2	3.241516 	1
1	3	3	71	2	2	NaN	0	3.241516 	0
1	3	3	72	2	34	1.8230	1	3.241516 	1
1	3	3	73	1	22	6.2947	-1	3.241516 	0
1	3	3	74	2	5	2.1360	1	3.241516 	1
1	3	3	75	4	4	0.5360	1	3.241516 	1
1	3	3	76	2	18	1.6510	1	3.241516 	1
1	3	3	77	2	12	1.7330	1	3.241516 	1
1	3	3	78	3	5	NaN	2	3.241516 	1
1	3	3	79	4	2	0.5594	1	3.241516 	1
1	3	3	80	2	6	1.8770	1	3.241516 	1
1	4	6	1	2	26	4.7828	1	2.369897 	1
1	4	6	2	1	27	NaN	2	2.369897 	1
1	4	6	3	2	35	4.1292	1	2.369897 	1
1	4	6	4	1	16	NaN	2	2.369897 	1
1	4	6	5	1	19	NaN	2	2.369897 	1
1	4	6	6	1	26	NaN	2	2.369897 	1
1	4	6	7	2	20	4.2091	1	2.369897 	1
1	4	6	8	2	5	3.6825	1	2.369897 	1
1	4	6	9	1	22	NaN	2	2.369897 	1
1	4	6	10	2	17	2.3537	1	2.369897 	1
1	4	6	11	2	6	3.2399	1	2.369897 	1
1	4	6	12	1	8	NaN	2	2.369897 	1
1	4	6	13	2	11	NaN	0	2.369897 	0
1	4	6	14	3	3	NaN	2	2.369897 	1
1	4	6	15	2	22	NaN	0	2.369897 	0
1	4	6	16	1	30	NaN	2	2.369897 	1
1	4	6	17	1	15	NaN	2	2.369897 	1
1	4	6	18	1	20	NaN	2	2.369897 	1
1	4	6	19	2	12	NaN	0	2.369897 	0
1	4	6	20	3	5	NaN	2	2.369897 	1
1	4	6	21	4	3	0.2966	1	2.369897 	1
1	4	6	22	1	11	NaN	2	2.369897 	1
1	4	6	23	2	32	4.0153	1	2.369897 	1
1	4	6	24	1	25	9.3398	-1	2.369897 	0
1	4	6	25	2	13	3.6848	1	2.369897 	1
1	4	6	26	1	6	NaN	2	2.369897 	1
1	4	6	27	2	4	3.7503	1	2.369897 	1
1	4	6	28	2	34	4.0825	1	2.369897 	1
1	4	6	29	2	10	4.6135	1	2.369897 	1
1	4	6	30	3	2	NaN	2	2.369897 	1
1	4	6	31	1	32	NaN	2	2.369897 	1
1	4	6	32	4	5	0.4159	1	2.369897 	1
1	4	6	33	2	23	-0.4548	-2	2.369897 	0
1	4	6	34	2	18	NaN	0	2.369897 	0
1	4	6	35	1	3	NaN	2	2.369897 	1
1	4	6	36	2	3	4.7073	1	2.369897 	1
1	4	6	37	1	21	NaN	2	2.369897 	1
1	4	6	38	1	18	NaN	2	2.369897 	1
1	4	6	39	2	28	3.4672	1	2.369897 	1
1	4	6	40	2	1	NaN	0	2.369897 	0
1	4	6	41	1	24	NaN	2	2.369897 	1
1	4	6	42	1	2	NaN	2	2.369897 	1
1	4	6	43	2	16	4.3712	1	2.369897 	1
1	4	6	44	2	25	3.1164	1	2.369897 	1
1	4	6	45	2	19	3.9394	1	2.369897 	1
1	4	6	46	4	1	0.4160	1	2.369897 	1
1	4	6	47	1	7	NaN	2	2.369897 	1
1	4	6	48	2	33	3.3253	1	2.369897 	1
1	4	6	49	1	10	NaN	2	2.369897 	1
1	4	6	50	1	33	NaN	2	2.369897 	1
1	4	6	51	2	8	4.8597	1	2.369897 	1
1	4	6	52	2	2	3.6515	1	2.369897 	1
1	4	6	53	1	14	NaN	2	2.369897 	1
1	4	6	54	1	4	NaN	2	2.369897 	1
1	4	6	55	2	30	3.6119	1	2.369897 	1
1	4	6	56	2	31	4.1964	1	2.369897 	1
1	4	6	57	1	9	7.7396	-1	2.369897 	0
1	4	6	58	3	4	NaN	2	2.369897 	1
1	4	6	59	1	17	NaN	2	2.369897 	1
1	4	6	60	1	12	NaN	2	2.369897 	1
1	4	6	61	1	31	NaN	2	2.369897 	1
1	4	6	62	2	15	1.8591	1	2.369897 	1
1	4	6	63	1	23	NaN	2	2.369897 	1
1	4	6	64	1	35	NaN	2	2.369897 	1
1	4	6	65	2	24	NaN	0	2.369897 	0
1	4	6	66	1	13	NaN	2	2.369897 	1
1	4	6	67	1	5	NaN	2	2.369897 	1
1	4	6	68	2	7	3.9890	1	2.369897 	1
1	4	6	69	3	1	NaN	2	2.369897 	1
1	4	6	70	2	14	4.0708	1	2.369897 	1
1	4	6	71	1	1	NaN	2	2.369897 	1
1	4	6	72	4	4	0.3158	1	2.369897 	1
1	4	6	73	2	27	3.0051	1	2.369897 	1
1	4	6	74	4	2	0.3889	1	2.369897 	1
1	4	6	75	1	28	NaN	2	2.369897 	1
1	4	6	76	2	29	4.0762	1	2.369897 	1
1	4	6	77	1	34	NaN	2	2.369897 	1
1	4	6	78	2	21	2.7849	1	2.369897 	1
1	4	6	79	2	9	NaN	0	2.369897 	0
1	4	6	80	1	29	NaN	2	2.369897 	1
1	5	2	1	1	10	NaN	2	3.680934 	1
1	5	2	2	2	3	1.2630	1	3.680934 	1
1	5	2	3	1	11	NaN	2	3.680934 	1
1	5	2	4	2	18	1.2812	1	3.680934 	1
1	5	2	5	1	3	NaN	2	3.680934 	1
1	5	2	6	1	33	NaN	2	3.680934 	1
1	5	2	7	2	4	1.3010	1	3.680934 	1
1	5	2	8	1	2	NaN	2	3.680934 	1
1	5	2	9	2	32	0.8728	1	3.680934 	1
1	5	2	10	2	26	1.3582	1	3.680934 	1
1	5	2	11	3	3	NaN	2	3.680934 	1
1	5	2	12	1	5	NaN	2	3.680934 	1
1	5	2	13	2	29	1.4188	1	3.680934 	1
1	5	2	14	1	7	NaN	2	3.680934 	1
1	5	2	15	2	34	1.1959	1	3.680934 	1
1	5	2	16	4	5	0.4761	1	3.680934 	1
1	5	2	17	2	24	1.3991	1	3.680934 	1
1	5	2	18	2	13	1.2696	1	3.680934 	1
1	5	2	19	1	35	NaN	2	3.680934 	1
1	5	2	20	4	1	0.3199	1	3.680934 	1
1	5	2	21	2	28	1.4398	1	3.680934 	1
1	5	2	22	2	5	1.0845	1	3.680934 	1
1	5	2	23	2	35	1.3535	1	3.680934 	1
1	5	2	24	1	32	NaN	2	3.680934 	1
1	5	2	25	3	1	NaN	2	3.680934 	1
1	5	2	26	1	9	NaN	2	3.680934 	1
1	5	2	27	1	6	NaN	2	3.680934 	1
1	5	2	28	2	9	1.3331	1	3.680934 	1
1	5	2	29	4	2	0.3959	1	3.680934 	1
1	5	2	30	1	24	NaN	2	3.680934 	1
1	5	2	31	1	18	NaN	2	3.680934 	1
1	5	2	32	1	29	NaN	2	3.680934 	1
1	5	2	33	2	2	1.2514	1	3.680934 	1
1	5	2	34	2	30	1.1546	1	3.680934 	1
1	5	2	35	4	4	0.3026	1	3.680934 	1
1	5	2	36	3	2	NaN	2	3.680934 	1
1	5	2	37	1	14	NaN	2	3.680934 	1
1	5	2	38	3	5	NaN	2	3.680934 	1
1	5	2	39	2	25	1.1811	1	3.680934 	1
1	5	2	40	2	27	1.1144	1	3.680934 	1
1	5	2	41	1	22	NaN	2	3.680934 	1
1	5	2	42	3	4	NaN	2	3.680934 	1
1	5	2	43	1	15	NaN	2	3.680934 	1
1	5	2	44	2	1	1.2558	1	3.680934 	1
1	5	2	45	1	13	NaN	2	3.680934 	1
1	5	2	46	2	23	1.3128	1	3.680934 	1
1	5	2	47	2	15	1.2455	1	3.680934 	1
1	5	2	48	2	33	1.1282	1	3.680934 	1
1	5	2	49	2	22	1.4883	1	3.680934 	1
1	5	2	50	2	20	1.2648	1	3.680934 	1
1	5	2	51	2	11	1.4896	1	3.680934 	1
1	5	2	52	1	21	NaN	2	3.680934 	1
1	5	2	53	2	31	1.4628	1	3.680934 	1
1	5	2	54	2	8	0.4976	1	3.680934 	1
1	5	2	55	1	20	5.5115	-1	3.680934 	0
1	5	2	56	2	17	1.4824	1	3.680934 	1
1	5	2	57	2	16	1.1113	1	3.680934 	1
1	5	2	58	1	8	NaN	2	3.680934 	1
1	5	2	59	1	27	NaN	2	3.680934 	1
1	5	2	60	1	26	NaN	2	3.680934 	1
1	5	2	61	4	3	0.4656	1	3.680934 	1
1	5	2	62	2	14	1.3185	1	3.680934 	1
1	5	2	63	1	25	NaN	2	3.680934 	1
1	5	2	64	1	16	NaN	2	3.680934 	1
1	5	2	65	2	7	1.3889	1	3.680934 	1
1	5	2	66	2	6	1.2497	1	3.680934 	1
1	5	2	67	1	1	NaN	2	3.680934 	1
1	5	2	68	1	12	4.5118	-1	3.680934 	0
1	5	2	69	1	31	NaN	2	3.680934 	1
1	5	2	70	2	19	1.7154	1	3.680934 	1
1	5	2	71	2	21	1.3171	1	3.680934 	1
1	5	2	72	1	17	5.4552	-1	3.680934 	0
1	5	2	73	1	30	NaN	2	3.680934 	1
1	5	2	74	1	4	NaN	2	3.680934 	1
1	5	2	75	2	10	1.3850	1	3.680934 	1
1	5	2	76	1	23	NaN	2	3.680934 	1
1	5	2	77	1	19	NaN	2	3.680934 	1
1	5	2	78	1	34	NaN	2	3.680934 	1
1	5	2	79	1	28	NaN	2	3.680934 	1
1	5	2	80	2	12	1.3607	1	3.680934 	1
1	6	5	1	1	21	NaN	2	3.084385 	1
1	6	5	2	1	8	NaN	2	3.084385 	1
1	6	5	3	1	20	NaN	2	3.084385 	1
1	6	5	4	1	35	NaN	2	3.084385 	1
1	6	5	5	2	17	2.1547	1	3.084385 	1
1	6	5	6	1	22	NaN	2	3.084385 	1
1	6	5	7	1	12	NaN	2	3.084385 	1
1	6	5	8	1	28	NaN	2	3.084385 	1
1	6	5	9	2	9	2.2490	1	3.084385 	1
1	6	5	10	3	3	NaN	2	3.084385 	1
1	6	5	11	2	2	NaN	0	3.084385 	0
1	6	5	12	1	24	NaN	2	3.084385 	1
1	6	5	13	2	12	3.2658	1	3.084385 	1
1	6	5	14	2	30	2.5713	1	3.084385 	1
1	6	5	15	1	16	NaN	2	3.084385 	1
1	6	5	16	1	4	NaN	2	3.084385 	1
1	6	5	17	1	15	NaN	2	3.084385 	1
1	6	5	18	1	9	NaN	2	3.084385 	1
1	6	5	19	2	7	NaN	0	3.084385 	0
1	6	5	20	1	23	NaN	2	3.084385 	1
1	6	5	21	2	13	2.4659	1	3.084385 	1
1	6	5	22	1	2	NaN	2	3.084385 	1
1	6	5	23	1	6	NaN	2	3.084385 	1
1	6	5	24	2	22	2.7617	1	3.084385 	1
1	6	5	25	2	26	2.8168	1	3.084385 	1
1	6	5	26	3	5	NaN	2	3.084385 	1
1	6	5	27	2	4	3.6304	1	3.084385 	1
1	6	5	28	1	7	NaN	2	3.084385 	1
1	6	5	29	2	15	2.7270	1	3.084385 	1
1	6	5	30	1	34	NaN	2	3.084385 	1
1	6	5	31	3	2	NaN	2	3.084385 	1
1	6	5	32	1	32	NaN	2	3.084385 	1
1	6	5	33	1	29	NaN	2	3.084385 	1
1	6	5	34	1	17	NaN	2	3.084385 	1
1	6	5	35	2	19	2.4379	1	3.084385 	1
1	6	5	36	2	8	2.4424	1	3.084385 	1
1	6	5	37	2	33	3.0373	1	3.084385 	1
1	6	5	38	1	30	NaN	2	3.084385 	1
1	6	5	39	2	10	3.0160	1	3.084385 	1
1	6	5	40	4	1	0.9523	1	3.084385 	1
1	6	5	41	1	1	NaN	2	3.084385 	1
1	6	5	42	2	28	2.2164	1	3.084385 	1
1	6	5	43	2	23	1.2945	1	3.084385 	1
1	6	5	44	1	5	NaN	2	3.084385 	1
1	6	5	45	1	27	NaN	2	3.084385 	1
1	6	5	46	2	3	2.2382	1	3.084385 	1
1	6	5	47	2	29	2.1417	1	3.084385 	1
1	6	5	48	2	24	2.1876	1	3.084385 	1
1	6	5	49	2	27	2.4702	1	3.084385 	1
1	6	5	50	1	33	4.3012	-1	3.084385 	0
1	6	5	51	1	31	NaN	2	3.084385 	1
1	6	5	52	2	18	2.5268	1	3.084385 	1
1	6	5	53	2	34	2.5665	1	3.084385 	1
1	6	5	54	3	4	NaN	2	3.084385 	1
1	6	5	55	1	3	NaN	2	3.084385 	1
1	6	5	56	4	5	0.3263	1	3.084385 	1
1	6	5	57	1	19	5.5332	-1	3.084385 	0
1	6	5	58	2	16	2.1367	1	3.084385 	1
1	6	5	59	2	25	2.1303	1	3.084385 	1
1	6	5	60	4	2	0.9973	1	3.084385 	1
1	6	5	61	1	18	NaN	2	3.084385 	1
1	6	5	62	1	25	NaN	2	3.084385 	1
1	6	5	63	1	14	NaN	2	3.084385 	1
1	6	5	64	2	11	2.4037	1	3.084385 	1
1	6	5	65	4	3	0.3625	1	3.084385 	1
1	6	5	66	4	4	0.3515	1	3.084385 	1
1	6	5	67	2	1	2.9355	1	3.084385 	1
1	6	5	68	2	35	2.0280	1	3.084385 	1
1	6	5	69	2	21	3.0512	1	3.084385 	1
1	6	5	70	1	11	NaN	2	3.084385 	1
1	6	5	71	2	14	3.4655	1	3.084385 	1
1	6	5	72	1	13	NaN	2	3.084385 	1
1	6	5	73	2	31	3.2329	1	3.084385 	1
1	6	5	74	1	10	7.3938	-1	3.084385 	0
1	6	5	75	2	5	2.6920	1	3.084385 	1
1	6	5	76	2	32	1.2494	1	3.084385 	1
1	6	5	77	2	20	2.7752	1	3.084385 	1
1	6	5	78	2	6	2.3299	1	3.084385 	1
1	6	5	79	1	26	NaN	2	3.084385 	1
1	6	5	80	3	1	NaN	2	3.084385 	1
2	1	3	1	3	1	NaN	2	2.859004 	1
2	1	3	2	4	5	0.5111	1	2.859004 	1
2	1	3	3	1	26	NaN	2	2.859004 	1
2	1	3	4	1	19	NaN	2	2.859004 	1
2	1	3	5	1	8	NaN	2	2.859004 	1
2	1	3	6	2	22	1.5791	1	2.859004 	1
2	1	3	7	2	1	1.8903	1	2.859004 	1
2	1	3	8	1	22	NaN	2	2.859004 	1
2	1	3	9	2	17	1.7222	1	2.859004 	1
2	1	3	10	2	13	1.8200	1	2.859004 	1
2	1	3	11	2	15	1.2563	1	2.859004 	1
2	1	3	12	1	3	NaN	2	2.859004 	1
2	1	3	13	2	32	1.4371	1	2.859004 	1
2	1	3	14	2	18	1.1239	1	2.859004 	1
2	1	3	15	1	13	7.0066	-1	2.859004 	0
2	1	3	16	1	11	NaN	2	2.859004 	1
2	1	3	17	2	25	1.8618	1	2.859004 	1
2	1	3	18	1	2	NaN	2	2.859004 	1
2	1	3	19	2	21	2.0928	1	2.859004 	1
2	1	3	20	3	2	NaN	2	2.859004 	1
2	1	3	21	1	5	7.4135	-1	2.859004 	0
2	1	3	22	2	7	1.7584	1	2.859004 	1
2	1	3	23	1	17	6.7675	-1	2.859004 	0
2	1	3	24	1	10	6.0898	-1	2.859004 	0
2	1	3	25	1	12	NaN	2	2.859004 	1
2	1	3	26	1	23	NaN	2	2.859004 	1
2	1	3	27	2	3	0.7067	1	2.859004 	1
2	1	3	28	1	21	NaN	2	2.859004 	1
2	1	3	29	2	12	0.5565	1	2.859004 	1
2	1	3	30	1	6	NaN	2	2.859004 	1
2	1	3	31	2	20	1.8569	1	2.859004 	1
2	1	3	32	2	10	-0.0056	-2	2.859004 	0
2	1	3	33	1	24	7.8854	-1	2.859004 	0
2	1	3	34	2	16	1.3065	1	2.859004 	1
2	1	3	35	2	27	1.6186	1	2.859004 	1
2	1	3	36	2	19	1.4220	1	2.859004 	1
2	1	3	37	1	33	NaN	2	2.859004 	1
2	1	3	38	1	28	NaN	2	2.859004 	1
2	1	3	39	1	35	NaN	2	2.859004 	1
2	1	3	40	2	34	-0.8111	-2	2.859004 	0
2	1	3	41	3	3	NaN	2	2.859004 	1
2	1	3	42	2	5	1.5875	1	2.859004 	1
2	1	3	43	4	2	0.7327	1	2.859004 	1
2	1	3	44	1	32	NaN	2	2.859004 	1
2	1	3	45	2	26	1.5663	1	2.859004 	1
2	1	3	46	1	30	8.3304	-1	2.859004 	0
2	1	3	47	1	29	NaN	2	2.859004 	1
2	1	3	48	4	3	0.3912	1	2.859004 	1
2	1	3	49	1	4	8.5238	-1	2.859004 	0
2	1	3	50	2	28	1.7001	1	2.859004 	1
2	1	3	51	2	29	1.4788	1	2.859004 	1
2	1	3	52	1	27	NaN	2	2.859004 	1
2	1	3	53	1	9	NaN	2	2.859004 	1
2	1	3	54	2	8	1.7379	1	2.859004 	1
2	1	3	55	2	35	1.6022	1	2.859004 	1
2	1	3	56	1	31	NaN	2	2.859004 	1
2	1	3	57	2	33	1.4185	1	2.859004 	1
2	1	3	58	3	5	NaN	2	2.859004 	1
2	1	3	59	2	2	1.5079	1	2.859004 	1
2	1	3	60	2	11	1.2544	1	2.859004 	1
2	1	3	61	1	16	7.4968	-1	2.859004 	0
2	1	3	62	3	4	NaN	2	2.859004 	1
2	1	3	63	2	4	1.3000	1	2.859004 	1
2	1	3	64	1	20	NaN	2	2.859004 	1
2	1	3	65	1	7	NaN	2	2.859004 	1
2	1	3	66	1	18	NaN	2	2.859004 	1
2	1	3	67	1	25	8.3993	-1	2.859004 	0
2	1	3	68	4	4	0.4769	1	2.859004 	1
2	1	3	69	1	34	NaN	2	2.859004 	1
2	1	3	70	2	30	2.0683	1	2.859004 	1
2	1	3	71	1	14	NaN	2	2.859004 	1
2	1	3	72	1	15	NaN	2	2.859004 	1
2	1	3	73	1	1	NaN	2	2.859004 	1
2	1	3	74	2	14	1.7464	1	2.859004 	1
2	1	3	75	2	31	1.5720	1	2.859004 	1
2	1	3	76	2	6	1.5787	1	2.859004 	1
2	1	3	77	2	23	1.7012	1	2.859004 	1
2	1	3	78	2	9	1.6259	1	2.859004 	1
2	1	3	79	4	1	0.3028	1	2.859004 	1
2	1	3	80	2	24	1.7189	1	2.859004 	1
2	2	6	1	1	15	NaN	2	2.400269 	1
2	2	6	2	1	10	NaN	2	2.400269 	1
2	2	6	3	1	18	NaN	2	2.400269 	1
2	2	6	4	2	9	NaN	0	2.400269 	0
2	2	6	5	1	16	8.6337	-1	2.400269 	0
2	2	6	6	1	2	9.8629	-1	2.400269 	0
2	2	6	7	2	10	3.7485	1	2.400269 	1
2	2	6	8	1	4	NaN	2	2.400269 	1
2	2	6	9	1	9	NaN	2	2.400269 	1
2	2	6	10	2	25	4.2780	1	2.400269 	1
2	2	6	11	2	20	2.7393	1	2.400269 	1
2	2	6	12	2	21	3.3401	1	2.400269 	1
2	2	6	13	4	4	0.2818	1	2.400269 	1
2	2	6	14	2	13	2.2894	1	2.400269 	1
2	2	6	15	3	2	NaN	2	2.400269 	1
2	2	6	16	4	1	0.3720	1	2.400269 	1
2	2	6	17	3	3	NaN	2	2.400269 	1
2	2	6	18	2	7	1.5959	1	2.400269 	1
2	2	6	19	1	20	8.8607	-1	2.400269 	0
2	2	6	20	2	23	3.0199	1	2.400269 	1
2	2	6	21	1	13	7.2677	-1	2.400269 	0
2	2	6	22	2	24	1.6789	1	2.400269 	1
2	2	6	23	1	17	NaN	2	2.400269 	1
2	2	6	24	1	23	NaN	2	2.400269 	1
2	2	6	25	1	22	NaN	2	2.400269 	1
2	2	6	26	2	29	3.5194	1	2.400269 	1
2	2	6	27	2	3	3.0509	1	2.400269 	1
2	2	6	28	1	29	NaN	2	2.400269 	1
2	2	6	29	2	34	2.6738	1	2.400269 	1
2	2	6	30	4	3	0.4981	1	2.400269 	1
2	2	6	31	1	28	NaN	2	2.400269 	1
2	2	6	32	1	7	NaN	2	2.400269 	1
2	2	6	33	1	3	NaN	2	2.400269 	1
2	2	6	34	1	34	NaN	2	2.400269 	1
2	2	6	35	3	4	NaN	2	2.400269 	1
2	2	6	36	2	28	3.6910	1	2.400269 	1
2	2	6	37	2	11	1.7951	1	2.400269 	1
2	2	6	38	2	31	2.8576	1	2.400269 	1
2	2	6	39	2	26	3.4566	1	2.400269 	1
2	2	6	40	2	22	3.1540	1	2.400269 	1
2	2	6	41	1	14	NaN	2	2.400269 	1
2	2	6	42	1	5	NaN	2	2.400269 	1
2	2	6	43	2	35	2.2275	1	2.400269 	1
2	2	6	44	4	2	0.3420	1	2.400269 	1
2	2	6	45	2	8	2.5326	1	2.400269 	1
2	2	6	46	3	1	NaN	2	2.400269 	1
2	2	6	47	1	33	NaN	2	2.400269 	1
2	2	6	48	1	24	NaN	2	2.400269 	1
2	2	6	49	2	14	2.9597	1	2.400269 	1
2	2	6	50	2	17	2.5366	1	2.400269 	1
2	2	6	51	2	16	2.2127	1	2.400269 	1
2	2	6	52	1	21	NaN	2	2.400269 	1
2	2	6	53	1	26	NaN	2	2.400269 	1
2	2	6	54	2	4	3.1337	1	2.400269 	1
2	2	6	55	1	27	NaN	2	2.400269 	1
2	2	6	56	2	1	2.6517	1	2.400269 	1
2	2	6	57	2	6	3.4832	1	2.400269 	1
2	2	6	58	1	31	8.0362	-1	2.400269 	0
2	2	6	59	1	12	9.4585	-1	2.400269 	0
2	2	6	60	2	33	2.5526	1	2.400269 	1
2	2	6	61	1	6	7.5403	-1	2.400269 	0
2	2	6	62	2	15	2.1189	1	2.400269 	1
2	2	6	63	2	2	3.7452	1	2.400269 	1
2	2	6	64	2	12	2.7141	1	2.400269 	1
2	2	6	65	3	5	NaN	2	2.400269 	1
2	2	6	66	1	8	NaN	2	2.400269 	1
2	2	6	67	1	19	NaN	2	2.400269 	1
2	2	6	68	2	18	2.1748	1	2.400269 	1
2	2	6	69	1	35	NaN	2	2.400269 	1
2	2	6	70	2	27	NaN	0	2.400269 	0
2	2	6	71	2	32	0.4951	1	2.400269 	1
2	2	6	72	1	30	7.1744	-1	2.400269 	0
2	2	6	73	2	30	2.4065	1	2.400269 	1
2	2	6	74	1	25	NaN	2	2.400269 	1
2	2	6	75	1	11	10.4293	-1	2.400269 	0
2	2	6	76	2	5	2.7132	1	2.400269 	1
2	2	6	77	1	1	NaN	2	2.400269 	1
2	2	6	78	1	32	NaN	2	2.400269 	1
2	2	6	79	4	5	0.3525	1	2.400269 	1
2	2	6	80	2	19	2.3817	1	2.400269 	1
2	3	2	1	2	12	1.4799	1	3.680934 	1
2	3	2	2	2	7	1.0381	1	3.680934 	1
2	3	2	3	2	4	1.4347	1	3.680934 	1
2	3	2	4	1	1	NaN	2	3.680934 	1
2	3	2	5	1	14	NaN	2	3.680934 	1
2	3	2	6	2	33	1.1317	1	3.680934 	1
2	3	2	7	1	22	NaN	2	3.680934 	1
2	3	2	8	4	2	0.4322	1	3.680934 	1
2	3	2	9	2	9	1.3354	1	3.680934 	1
2	3	2	10	2	6	1.0984	1	3.680934 	1
2	3	2	11	4	1	0.3547	1	3.680934 	1
2	3	2	12	2	17	1.2107	1	3.680934 	1
2	3	2	13	1	28	NaN	2	3.680934 	1
2	3	2	14	2	23	1.6262	1	3.680934 	1
2	3	2	15	2	20	1.2641	1	3.680934 	1
2	3	2	16	1	19	NaN	2	3.680934 	1
2	3	2	17	2	29	1.4756	1	3.680934 	1
2	3	2	18	1	2	NaN	2	3.680934 	1
2	3	2	19	2	11	1.2244	1	3.680934 	1
2	3	2	20	1	17	NaN	2	3.680934 	1
2	3	2	21	1	35	NaN	2	3.680934 	1
2	3	2	22	1	9	NaN	2	3.680934 	1
2	3	2	23	2	16	1.4242	1	3.680934 	1
2	3	2	24	1	23	NaN	2	3.680934 	1
2	3	2	25	1	31	NaN	2	3.680934 	1
2	3	2	26	2	25	1.0295	1	3.680934 	1
2	3	2	27	1	3	NaN	2	3.680934 	1
2	3	2	28	2	35	1.1722	1	3.680934 	1
2	3	2	29	3	1	NaN	2	3.680934 	1
2	3	2	30	1	30	NaN	2	3.680934 	1
2	3	2	31	1	34	NaN	2	3.680934 	1
2	3	2	32	2	34	1.5684	1	3.680934 	1
2	3	2	33	3	5	NaN	2	3.680934 	1
2	3	2	34	1	26	NaN	2	3.680934 	1
2	3	2	35	2	5	1.1951	1	3.680934 	1
2	3	2	36	1	15	NaN	2	3.680934 	1
2	3	2	37	2	32	1.4242	1	3.680934 	1
2	3	2	38	1	32	NaN	2	3.680934 	1
2	3	2	39	1	20	6.2592	-1	3.680934 	0
2	3	2	40	1	12	5.8248	-1	3.680934 	0
2	3	2	41	1	8	NaN	2	3.680934 	1
2	3	2	42	1	10	NaN	2	3.680934 	1
2	3	2	43	2	2	1.4409	1	3.680934 	1
2	3	2	44	2	15	1.3914	1	3.680934 	1
2	3	2	45	1	18	NaN	2	3.680934 	1
2	3	2	46	2	31	1.1384	1	3.680934 	1
2	3	2	47	1	11	NaN	2	3.680934 	1
2	3	2	48	2	21	1.3169	1	3.680934 	1
2	3	2	49	1	13	NaN	2	3.680934 	1
2	3	2	50	1	4	NaN	2	3.680934 	1
2	3	2	51	2	10	0.7665	1	3.680934 	1
2	3	2	52	1	29	NaN	2	3.680934 	1
2	3	2	53	1	5	NaN	2	3.680934 	1
2	3	2	54	2	30	1.2542	1	3.680934 	1
2	3	2	55	1	24	NaN	2	3.680934 	1
2	3	2	56	2	19	1.2260	1	3.680934 	1
2	3	2	57	1	6	NaN	2	3.680934 	1
2	3	2	58	1	16	NaN	2	3.680934 	1
2	3	2	59	2	8	1.1695	1	3.680934 	1
2	3	2	60	1	21	NaN	2	3.680934 	1
2	3	2	61	2	13	1.5661	1	3.680934 	1
2	3	2	62	3	4	NaN	2	3.680934 	1
2	3	2	63	4	4	0.3298	1	3.680934 	1
2	3	2	64	2	22	1.1814	1	3.680934 	1
2	3	2	65	3	3	NaN	2	3.680934 	1
2	3	2	66	2	28	0.9456	1	3.680934 	1
2	3	2	67	2	18	0.9914	1	3.680934 	1
2	3	2	68	1	33	NaN	2	3.680934 	1
2	3	2	69	1	7	NaN	2	3.680934 	1
2	3	2	70	1	27	5.5042	-1	3.680934 	0
2	3	2	71	2	3	1.2017	1	3.680934 	1
2	3	2	72	2	27	1.0186	1	3.680934 	1
2	3	2	73	1	25	NaN	2	3.680934 	1
2	3	2	74	2	24	1.0613	1	3.680934 	1
2	3	2	75	4	5	0.3070	1	3.680934 	1
2	3	2	76	2	14	0.8935	1	3.680934 	1
2	3	2	77	2	1	1.1189	1	3.680934 	1
2	3	2	78	3	2	NaN	2	3.680934 	1
2	3	2	79	4	3	0.3946	1	3.680934 	1
2	3	2	80	2	26	1.3233	1	3.680934 	1
2	4	5	1	2	6	1.9087	1	3.083024 	1
2	4	5	2	1	33	NaN	2	3.083024 	1
2	4	5	3	2	1	1.8889	1	3.083024 	1
2	4	5	4	1	21	6.8754	-1	3.083024 	0
2	4	5	5	1	4	NaN	2	3.083024 	1
2	4	5	6	1	11	NaN	2	3.083024 	1
2	4	5	7	2	29	1.3522	1	3.083024 	1
2	4	5	8	2	12	2.3546	1	3.083024 	1
2	4	5	9	1	27	7.2174	-1	3.083024 	0
2	4	5	10	2	10	2.1344	1	3.083024 	1
2	4	5	11	2	18	1.9096	1	3.083024 	1
2	4	5	12	1	3	NaN	2	3.083024 	1
2	4	5	13	2	23	1.7470	1	3.083024 	1
2	4	5	14	3	4	NaN	2	3.083024 	1
2	4	5	15	2	11	1.7151	1	3.083024 	1
2	4	5	16	1	32	NaN	2	3.083024 	1
2	4	5	17	1	23	NaN	2	3.083024 	1
2	4	5	18	1	8	NaN	2	3.083024 	1
2	4	5	19	2	24	2.3193	1	3.083024 	1
2	4	5	20	3	1	NaN	2	3.083024 	1
2	4	5	21	4	1	0.3883	1	3.083024 	1
2	4	5	22	1	16	7.4642	-1	3.083024 	0
2	4	5	23	2	13	2.5306	1	3.083024 	1
2	4	5	24	1	15	NaN	2	3.083024 	1
2	4	5	25	2	9	1.9170	1	3.083024 	1
2	4	5	26	1	12	NaN	2	3.083024 	1
2	4	5	27	2	17	1.0670	1	3.083024 	1
2	4	5	28	2	22	1.7054	1	3.083024 	1
2	4	5	29	2	34	1.6657	1	3.083024 	1
2	4	5	30	3	2	NaN	2	3.083024 	1
2	4	5	31	1	7	NaN	2	3.083024 	1
2	4	5	32	4	5	0.6330	1	3.083024 	1
2	4	5	33	2	30	1.9901	1	3.083024 	1
2	4	5	34	2	19	1.5132	1	3.083024 	1
2	4	5	35	1	29	NaN	2	3.083024 	1
2	4	5	36	2	35	1.9897	1	3.083024 	1
2	4	5	37	1	28	NaN	2	3.083024 	1
2	4	5	38	1	1	7.5140	-1	3.083024 	0
2	4	5	39	2	31	1.7443	1	3.083024 	1
2	4	5	40	2	2	1.1100	1	3.083024 	1
2	4	5	41	1	22	NaN	2	3.083024 	1
2	4	5	42	1	31	NaN	2	3.083024 	1
2	4	5	43	2	15	1.7696	1	3.083024 	1
2	4	5	44	2	27	2.0276	1	3.083024 	1
2	4	5	45	2	16	1.5366	1	3.083024 	1
2	4	5	46	4	3	0.4071	1	3.083024 	1
2	4	5	47	1	26	NaN	2	3.083024 	1
2	4	5	48	2	5	1.8597	1	3.083024 	1
2	4	5	49	1	17	NaN	2	3.083024 	1
2	4	5	50	1	9	NaN	2	3.083024 	1
2	4	5	51	2	4	1.5372	1	3.083024 	1
2	4	5	52	2	21	1.9045	1	3.083024 	1
2	4	5	53	1	19	3.8938	-1	3.083024 	0
2	4	5	54	1	6	NaN	2	3.083024 	1
2	4	5	55	2	32	2.1087	1	3.083024 	1
2	4	5	56	2	28	2.0998	1	3.083024 	1
2	4	5	57	1	13	7.4081	-1	3.083024 	0
2	4	5	58	3	5	NaN	2	3.083024 	1
2	4	5	59	1	20	NaN	2	3.083024 	1
2	4	5	60	1	30	5.4350	-1	3.083024 	0
2	4	5	61	1	18	NaN	2	3.083024 	1
2	4	5	62	2	20	1.6079	1	3.083024 	1
2	4	5	63	1	14	NaN	2	3.083024 	1
2	4	5	64	1	25	6.9139	-1	3.083024 	0
2	4	5	65	2	3	1.4274	1	3.083024 	1
2	4	5	66	1	35	NaN	2	3.083024 	1
2	4	5	67	1	34	NaN	2	3.083024 	1
2	4	5	68	2	25	0.6750	1	3.083024 	1
2	4	5	69	3	3	NaN	2	3.083024 	1
2	4	5	70	2	8	1.9739	1	3.083024 	1
2	4	5	71	1	2	NaN	2	3.083024 	1
2	4	5	72	4	4	0.3811	1	3.083024 	1
2	4	5	73	2	26	1.5645	1	3.083024 	1
2	4	5	74	4	2	0.3487	1	3.083024 	1
2	4	5	75	1	10	NaN	2	3.083024 	1
2	4	5	76	2	33	2.2876	1	3.083024 	1
2	4	5	77	1	24	NaN	2	3.083024 	1
2	4	5	78	2	14	1.6818	1	3.083024 	1
2	4	5	79	2	7	2.4331	1	3.083024 	1
2	4	5	80	1	5	NaN	2	3.083024 	1
2	5	1	1	1	12	NaN	2	3.283860 	1
2	5	1	2	2	24	0.9061	1	3.283860 	1
2	5	1	3	1	10	NaN	2	3.283860 	1
2	5	1	4	2	19	1.1882	1	3.283860 	1
2	5	1	5	1	14	NaN	2	3.283860 	1
2	5	1	6	1	15	NaN	2	3.283860 	1
2	5	1	7	2	9	0.8736	1	3.283860 	1
2	5	1	8	1	3	2.9654	-1	3.283860 	0
2	5	1	9	2	22	0.7405	1	3.283860 	1
2	5	1	10	2	2	0.8160	1	3.283860 	1
2	5	1	11	3	1	NaN	2	3.283860 	1
2	5	1	12	1	20	NaN	2	3.283860 	1
2	5	1	13	2	28	0.6580	1	3.283860 	1
2	5	1	14	1	16	NaN	2	3.283860 	1
2	5	1	15	2	5	0.7266	1	3.283860 	1
2	5	1	16	4	4	0.2988	1	3.283860 	1
2	5	1	17	2	31	0.8242	1	3.283860 	1
2	5	1	18	2	13	0.7108	1	3.283860 	1
2	5	1	19	1	26	3.3083	-1	3.283860 	0
2	5	1	20	4	2	0.3303	1	3.283860 	1
2	5	1	21	2	21	0.9515	1	3.283860 	1
2	5	1	22	2	3	0.8030	1	3.283860 	1
2	5	1	23	2	1	0.7823	1	3.283860 	1
2	5	1	24	1	18	NaN	2	3.283860 	1
2	5	1	25	3	4	NaN	2	3.283860 	1
2	5	1	26	1	28	NaN	2	3.283860 	1
2	5	1	27	1	11	NaN	2	3.283860 	1
2	5	1	28	2	8	0.9180	1	3.283860 	1
2	5	1	29	4	3	0.3502	1	3.283860 	1
2	5	1	30	1	35	NaN	2	3.283860 	1
2	5	1	31	1	27	NaN	2	3.283860 	1
2	5	1	32	1	7	NaN	2	3.283860 	1
2	5	1	33	2	16	0.8199	1	3.283860 	1
2	5	1	34	2	30	0.9161	1	3.283860 	1
2	5	1	35	4	5	0.4087	1	3.283860 	1
2	5	1	36	3	2	NaN	2	3.283860 	1
2	5	1	37	1	2	NaN	2	3.283860 	1
2	5	1	38	3	5	NaN	2	3.283860 	1
2	5	1	39	2	34	0.7684	1	3.283860 	1
2	5	1	40	2	17	0.9078	1	3.283860 	1
2	5	1	41	1	8	3.3191	-1	3.283860 	0
2	5	1	42	3	3	NaN	2	3.283860 	1
2	5	1	43	1	17	NaN	2	3.283860 	1
2	5	1	44	2	11	0.8752	1	3.283860 	1
2	5	1	45	1	6	NaN	2	3.283860 	1
2	5	1	46	2	35	0.8589	1	3.283860 	1
2	5	1	47	2	20	0.7356	1	3.283860 	1
2	5	1	48	2	26	0.7887	1	3.283860 	1
2	5	1	49	2	4	-0.3179	-2	3.283860 	0
2	5	1	50	2	7	0.7709	1	3.283860 	1
2	5	1	51	2	32	0.6669	1	3.283860 	1
2	5	1	52	1	9	NaN	2	3.283860 	1
2	5	1	53	2	18	0.7294	1	3.283860 	1
2	5	1	54	2	33	0.7913	1	3.283860 	1
2	5	1	55	1	19	NaN	2	3.283860 	1
2	5	1	56	2	14	0.8623	1	3.283860 	1
2	5	1	57	2	12	0.6430	1	3.283860 	1
2	5	1	58	1	5	NaN	2	3.283860 	1
2	5	1	59	1	33	NaN	2	3.283860 	1
2	5	1	60	1	29	NaN	2	3.283860 	1
2	5	1	61	4	1	0.3493	1	3.283860 	1
2	5	1	62	2	15	0.7778	1	3.283860 	1
2	5	1	63	1	25	NaN	2	3.283860 	1
2	5	1	64	1	34	NaN	2	3.283860 	1
2	5	1	65	2	6	0.7819	1	3.283860 	1
2	5	1	66	2	27	0.7743	1	3.283860 	1
2	5	1	67	1	21	NaN	2	3.283860 	1
2	5	1	68	1	13	NaN	2	3.283860 	1
2	5	1	69	1	30	NaN	2	3.283860 	1
2	5	1	70	2	25	0.7613	1	3.283860 	1
2	5	1	71	2	23	0.8460	1	3.283860 	1
2	5	1	72	1	31	NaN	2	3.283860 	1
2	5	1	73	1	1	NaN	2	3.283860 	1
2	5	1	74	1	22	NaN	2	3.283860 	1
2	5	1	75	2	10	0.8714	1	3.283860 	1
2	5	1	76	1	32	3.1282	-1	3.283860 	0
2	5	1	77	1	4	NaN	2	3.283860 	1
2	5	1	78	1	24	0.2762	-1	3.283860 	0
2	5	1	79	1	23	NaN	2	3.283860 	1
2	5	1	80	2	29	0.8736	1	3.283860 	1
2	6	4	1	1	8	3.9334	-1	3.522954 	0
2	6	4	2	1	26	NaN	2	3.522954 	1
2	6	4	3	1	15	NaN	2	3.522954 	1
2	6	4	4	1	22	NaN	2	3.522954 	1
2	6	4	5	2	31	0.9995	1	3.522954 	1
2	6	4	6	1	13	NaN	2	3.522954 	1
2	6	4	7	1	7	NaN	2	3.522954 	1
2	6	4	8	1	9	NaN	2	3.522954 	1
2	6	4	9	2	11	0.9298	1	3.522954 	1
2	6	4	10	3	1	NaN	2	3.522954 	1
2	6	4	11	2	26	1.1144	1	3.522954 	1
2	6	4	12	1	12	NaN	2	3.522954 	1
2	6	4	13	2	12	1.0949	1	3.522954 	1
2	6	4	14	2	1	1.2240	1	3.522954 	1
2	6	4	15	1	3	3.2895	-1	3.522954 	0
2	6	4	16	1	19	NaN	2	3.522954 	1
2	6	4	17	1	16	NaN	2	3.522954 	1
2	6	4	18	1	10	NaN	2	3.522954 	1
2	6	4	19	2	30	1.2232	1	3.522954 	1
2	6	4	20	1	24	NaN	2	3.522954 	1
2	6	4	21	2	5	1.1962	1	3.522954 	1
2	6	4	22	1	5	NaN	2	3.522954 	1
2	6	4	23	1	30	NaN	2	3.522954 	1
2	6	4	24	2	18	1.2185	1	3.522954 	1
2	6	4	25	2	13	1.4050	1	3.522954 	1
2	6	4	26	3	3	NaN	2	3.522954 	1
2	6	4	27	2	29	1.4828	1	3.522954 	1
2	6	4	28	1	14	NaN	2	3.522954 	1
2	6	4	29	2	28	0.9330	1	3.522954 	1
2	6	4	30	1	2	NaN	2	3.522954 	1
2	6	4	31	3	5	NaN	2	3.522954 	1
2	6	4	32	1	34	NaN	2	3.522954 	1
2	6	4	33	1	29	NaN	2	3.522954 	1
2	6	4	34	1	33	NaN	2	3.522954 	1
2	6	4	35	2	22	1.0615	1	3.522954 	1
2	6	4	36	2	27	0.9889	1	3.522954 	1
2	6	4	37	2	35	1.4029	1	3.522954 	1
2	6	4	38	1	32	NaN	2	3.522954 	1
2	6	4	39	2	3	0.6210	1	3.522954 	1
2	6	4	40	4	3	0.4845	1	3.522954 	1
2	6	4	41	1	31	NaN	2	3.522954 	1
2	6	4	42	2	6	1.1607	1	3.522954 	1
2	6	4	43	2	17	1.0454	1	3.522954 	1
2	6	4	44	1	4	NaN	2	3.522954 	1
2	6	4	45	1	23	NaN	2	3.522954 	1
2	6	4	46	2	7	1.2118	1	3.522954 	1
2	6	4	47	2	8	1.1961	1	3.522954 	1
2	6	4	48	2	34	1.0092	1	3.522954 	1
2	6	4	49	2	24	1.1965	1	3.522954 	1
2	6	4	50	1	28	NaN	2	3.522954 	1
2	6	4	51	1	1	NaN	2	3.522954 	1
2	6	4	52	2	15	1.0874	1	3.522954 	1
2	6	4	53	2	20	1.0041	1	3.522954 	1
2	6	4	54	3	4	NaN	2	3.522954 	1
2	6	4	55	1	17	NaN	2	3.522954 	1
2	6	4	56	4	1	0.4026	1	3.522954 	1
2	6	4	57	1	11	NaN	2	3.522954 	1
2	6	4	58	2	21	0.7024	1	3.522954 	1
2	6	4	59	2	4	1.2777	1	3.522954 	1
2	6	4	60	4	4	0.4618	1	3.522954 	1
2	6	4	61	1	27	NaN	2	3.522954 	1
2	6	4	62	1	21	NaN	2	3.522954 	1
2	6	4	63	1	20	NaN	2	3.522954 	1
2	6	4	64	2	32	0.9101	1	3.522954 	1
2	6	4	65	4	5	0.3895	1	3.522954 	1
2	6	4	66	4	2	0.4076	1	3.522954 	1
2	6	4	67	2	16	1.1119	1	3.522954 	1
2	6	4	68	2	14	0.9989	1	3.522954 	1
2	6	4	69	2	19	1.2828	1	3.522954 	1
2	6	4	70	1	6	NaN	2	3.522954 	1
2	6	4	71	2	2	1.0513	1	3.522954 	1
2	6	4	72	1	35	3.0667	-1	3.522954 	0
2	6	4	73	2	23	1.2807	1	3.522954 	1
2	6	4	74	1	25	NaN	2	3.522954 	1
2	6	4	75	2	33	1.1755	1	3.522954 	1
2	6	4	76	2	25	0.9398	1	3.522954 	1
2	6	4	77	2	10	1.1850	1	3.522954 	1
2	6	4	78	2	9	1.1653	1	3.522954 	1
2	6	4	79	1	18	2.7862	-1	3.522954 	0
2	6	4	80	3	2	NaN	2	3.522954 	1
3	1	2	1	2	10	1.5128	1	3.399495 	1
3	1	2	2	2	2	1.5044	1	3.399495 	1
3	1	2	3	2	22	1.6260	1	3.399495 	1
3	1	2	4	3	5	NaN	2	3.399495 	1
3	1	2	5	2	18	1.4189	1	3.399495 	1
3	1	2	6	3	2	NaN	2	3.399495 	1
3	1	2	7	1	28	NaN	2	3.399495 	1
3	1	2	8	4	2	0.2841	1	3.399495 	1
3	1	2	9	1	12	NaN	2	3.399495 	1
3	1	2	10	1	20	NaN	2	3.399495 	1
3	1	2	11	2	14	1.4065	1	3.399495 	1
3	1	2	12	2	31	1.5368	1	3.399495 	1
3	1	2	13	2	24	1.4306	1	3.399495 	1
3	1	2	14	2	20	1.5057	1	3.399495 	1
3	1	2	15	1	5	NaN	2	3.399495 	1
3	1	2	16	2	19	1.3502	1	3.399495 	1
3	1	2	17	1	9	NaN	2	3.399495 	1
3	1	2	18	1	4	NaN	2	3.399495 	1
3	1	2	19	4	3	0.2693	1	3.399495 	1
3	1	2	20	1	33	NaN	2	3.399495 	1
3	1	2	21	2	12	1.3096	1	3.399495 	1
3	1	2	22	1	21	NaN	2	3.399495 	1
3	1	2	23	2	8	NaN	0	3.399495 	0
3	1	2	24	3	1	NaN	2	3.399495 	1
3	1	2	25	1	25	NaN	2	3.399495 	1
3	1	2	26	1	31	NaN	2	3.399495 	1
3	1	2	27	1	17	5.1937	-1	3.399495 	0
3	1	2	28	2	6	1.2819	1	3.399495 	1
3	1	2	29	1	1	NaN	2	3.399495 	1
3	1	2	30	1	7	NaN	2	3.399495 	1
3	1	2	31	1	19	NaN	2	3.399495 	1
3	1	2	32	2	30	1.2943	1	3.399495 	1
3	1	2	33	2	25	1.6249	1	3.399495 	1
3	1	2	34	2	26	1.6006	1	3.399495 	1
3	1	2	35	4	4	0.3144	1	3.399495 	1
3	1	2	36	2	27	1.4568	1	3.399495 	1
3	1	2	37	1	11	NaN	2	3.399495 	1
3	1	2	38	1	26	NaN	2	3.399495 	1
3	1	2	39	2	32	1.7047	1	3.399495 	1
3	1	2	40	1	2	NaN	2	3.399495 	1
3	1	2	41	2	33	1.5519	1	3.399495 	1
3	1	2	42	2	5	1.7459	1	3.399495 	1
3	1	2	43	4	1	0.3244	1	3.399495 	1
3	1	2	44	2	17	1.8892	1	3.399495 	1
3	1	2	45	2	16	1.6975	1	3.399495 	1
3	1	2	46	1	29	6.1322	-1	3.399495 	0
3	1	2	47	2	3	1.1569	1	3.399495 	1
3	1	2	48	2	21	1.3581	1	3.399495 	1
3	1	2	49	2	29	1.3656	1	3.399495 	1
3	1	2	50	3	4	NaN	2	3.399495 	1
3	1	2	51	1	35	NaN	2	3.399495 	1
3	1	2	52	2	34	1.1160	1	3.399495 	1
3	1	2	53	2	28	1.4508	1	3.399495 	1
3	1	2	54	3	3	NaN	2	3.399495 	1
3	1	2	55	1	18	NaN	2	3.399495 	1
3	1	2	56	1	14	NaN	2	3.399495 	1
3	1	2	57	2	13	1.3122	1	3.399495 	1
3	1	2	58	1	24	NaN	2	3.399495 	1
3	1	2	59	2	23	1.4493	1	3.399495 	1
3	1	2	60	2	35	1.6387	1	3.399495 	1
3	1	2	61	1	23	NaN	2	3.399495 	1
3	1	2	62	2	11	1.8998	1	3.399495 	1
3	1	2	63	2	15	1.3404	1	3.399495 	1
3	1	2	64	1	3	NaN	2	3.399495 	1
3	1	2	65	2	1	1.4651	1	3.399495 	1
3	1	2	66	2	7	1.4468	1	3.399495 	1
3	1	2	67	1	22	NaN	2	3.399495 	1
3	1	2	68	1	8	4.2405	-1	3.399495 	0
3	1	2	69	1	30	NaN	2	3.399495 	1
3	1	2	70	1	32	NaN	2	3.399495 	1
3	1	2	71	1	13	NaN	2	3.399495 	1
3	1	2	72	1	27	NaN	2	3.399495 	1
3	1	2	73	1	34	NaN	2	3.399495 	1
3	1	2	74	4	5	0.3854	1	3.399495 	1
3	1	2	75	2	9	1.6167	1	3.399495 	1
3	1	2	76	1	15	NaN	2	3.399495 	1
3	1	2	77	1	10	NaN	2	3.399495 	1
3	1	2	78	2	4	1.4559	1	3.399495 	1
3	1	2	79	1	16	NaN	2	3.399495 	1
3	1	2	80	1	6	NaN	2	3.399495 	1
3	2	5	1	3	5	NaN	2	3.110313 	1
3	2	5	2	1	17	NaN	2	3.110313 	1
3	2	5	3	2	24	2.5521	1	3.110313 	1
3	2	5	4	2	29	2.7290	1	3.110313 	1
3	2	5	5	1	5	NaN	2	3.110313 	1
3	2	5	6	1	33	NaN	2	3.110313 	1
3	2	5	7	3	2	NaN	2	3.110313 	1
3	2	5	8	2	1	NaN	0	3.110313 	0
3	2	5	9	2	7	2.3321	1	3.110313 	1
3	2	5	10	1	3	NaN	2	3.110313 	1
3	2	5	11	1	7	NaN	2	3.110313 	1
3	2	5	12	2	5	2.4799	1	3.110313 	1
3	2	5	13	1	31	NaN	2	3.110313 	1
3	2	5	14	1	18	NaN	2	3.110313 	1
3	2	5	15	4	1	0.3697	1	3.110313 	1
3	2	5	16	1	1	NaN	2	3.110313 	1
3	2	5	17	2	25	1.7105	1	3.110313 	1
3	2	5	18	1	4	NaN	2	3.110313 	1
3	2	5	19	1	2	NaN	2	3.110313 	1
3	2	5	20	2	23	3.2950	1	3.110313 	1
3	2	5	21	1	15	NaN	2	3.110313 	1
3	2	5	22	2	15	1.9752	1	3.110313 	1
3	2	5	23	1	10	NaN	2	3.110313 	1
3	2	5	24	2	18	1.6356	1	3.110313 	1
3	2	5	25	2	11	1.7829	1	3.110313 	1
3	2	5	26	1	25	NaN	2	3.110313 	1
3	2	5	27	4	3	0.3726	1	3.110313 	1
3	2	5	28	1	8	NaN	2	3.110313 	1
3	2	5	29	3	4	NaN	2	3.110313 	1
3	2	5	30	2	17	2.1271	1	3.110313 	1
3	2	5	31	2	19	3.0636	1	3.110313 	1
3	2	5	32	1	19	7.6253	-1	3.110313 	0
3	2	5	33	1	21	NaN	2	3.110313 	1
3	2	5	34	1	29	NaN	2	3.110313 	1
3	2	5	35	2	3	2.5094	1	3.110313 	1
3	2	5	36	1	26	NaN	2	3.110313 	1
3	2	5	37	1	32	NaN	2	3.110313 	1
3	2	5	38	2	10	0.7277	1	3.110313 	1
3	2	5	39	4	4	0.3276	1	3.110313 	1
3	2	5	40	1	34	NaN	2	3.110313 	1
3	2	5	41	1	23	3.8208	-1	3.110313 	0
3	2	5	42	1	20	NaN	2	3.110313 	1
3	2	5	43	2	22	2.2021	1	3.110313 	1
3	2	5	44	2	28	3.0820	1	3.110313 	1
3	2	5	45	2	20	2.4779	1	3.110313 	1
3	2	5	46	2	32	2.7476	1	3.110313 	1
3	2	5	47	2	4	2.2378	1	3.110313 	1
3	2	5	48	1	24	NaN	2	3.110313 	1
3	2	5	49	2	13	2.1003	1	3.110313 	1
3	2	5	50	1	22	NaN	2	3.110313 	1
3	2	5	51	4	5	0.3451	1	3.110313 	1
3	2	5	52	1	9	NaN	2	3.110313 	1
3	2	5	53	2	26	1.9480	1	3.110313 	1
3	2	5	54	2	30	1.8467	1	3.110313 	1
3	2	5	55	1	35	NaN	2	3.110313 	1
3	2	5	56	2	6	1.7556	1	3.110313 	1
3	2	5	57	1	13	6.9478	-1	3.110313 	0
3	2	5	58	2	33	1.8377	1	3.110313 	1
3	2	5	59	1	30	NaN	2	3.110313 	1
3	2	5	60	2	2	2.4252	1	3.110313 	1
3	2	5	61	1	27	NaN	2	3.110313 	1
3	2	5	62	2	8	1.2969	1	3.110313 	1
3	2	5	63	2	31	1.6119	1	3.110313 	1
3	2	5	64	2	14	2.2170	1	3.110313 	1
3	2	5	65	1	12	4.4722	-1	3.110313 	0
3	2	5	66	2	16	2.2909	1	3.110313 	1
3	2	5	67	1	11	NaN	2	3.110313 	1
3	2	5	68	1	6	NaN	2	3.110313 	1
3	2	5	69	2	27	2.3948	1	3.110313 	1
3	2	5	70	2	21	2.4469	1	3.110313 	1
3	2	5	71	2	35	2.2877	1	3.110313 	1
3	2	5	72	4	2	0.2913	1	3.110313 	1
3	2	5	73	3	1	NaN	2	3.110313 	1
3	2	5	74	3	3	NaN	2	3.110313 	1
3	2	5	75	2	34	2.4640	1	3.110313 	1
3	2	5	76	1	28	NaN	2	3.110313 	1
3	2	5	77	2	9	2.1498	1	3.110313 	1
3	2	5	78	1	16	NaN	2	3.110313 	1
3	2	5	79	1	14	6.0767	-1	3.110313 	0
3	2	5	80	2	12	2.8338	1	3.110313 	1
3	3	1	1	1	9	NaN	2	2.996397 	1
3	3	1	2	2	7	0.9680	1	2.996397 	1
3	3	1	3	2	17	1.0627	1	2.996397 	1
3	3	1	4	2	2	0.8673	1	2.996397 	1
3	3	1	5	2	8	1.0196	1	2.996397 	1
3	3	1	6	1	17	NaN	2	2.996397 	1
3	3	1	7	4	1	0.2992	1	2.996397 	1
3	3	1	8	2	28	0.7842	1	2.996397 	1
3	3	1	9	1	12	NaN	2	2.996397 	1
3	3	1	10	1	15	NaN	2	2.996397 	1
3	3	1	11	2	24	0.6879	1	2.996397 	1
3	3	1	12	1	31	NaN	2	2.996397 	1
3	3	1	13	1	8	NaN	2	2.996397 	1
3	3	1	14	1	18	NaN	2	2.996397 	1
3	3	1	15	4	3	0.3076	1	2.996397 	1
3	3	1	16	1	26	NaN	2	2.996397 	1
3	3	1	17	2	26	0.8541	1	2.996397 	1
3	3	1	18	4	2	0.3337	1	2.996397 	1
3	3	1	19	1	21	NaN	2	2.996397 	1
3	3	1	20	1	33	2.5892	-1	2.996397 	0
3	3	1	21	3	4	NaN	2	2.996397 	1
3	3	1	22	1	11	NaN	2	2.996397 	1
3	3	1	23	4	4	0.3311	1	2.996397 	1
3	3	1	24	3	2	3.5689	-1	2.996397 	0
3	3	1	25	2	1	1.4417	1	2.996397 	1
3	3	1	26	2	34	NaN	0	2.996397 	0
3	3	1	27	1	10	3.2285	-1	2.996397 	0
3	3	1	28	3	1	NaN	2	2.996397 	1
3	3	1	29	1	30	NaN	2	2.996397 	1
3	3	1	30	1	1	NaN	2	2.996397 	1
3	3	1	31	3	5	NaN	2	2.996397 	1
3	3	1	32	1	29	NaN	2	2.996397 	1
3	3	1	33	1	27	NaN	2	2.996397 	1
3	3	1	34	2	19	0.9147	1	2.996397 	1
3	3	1	35	1	7	NaN	2	2.996397 	1
3	3	1	36	2	32	0.8226	1	2.996397 	1
3	3	1	37	1	6	NaN	2	2.996397 	1
3	3	1	38	1	4	NaN	2	2.996397 	1
3	3	1	39	2	14	0.8537	1	2.996397 	1
3	3	1	40	2	29	0.8882	1	2.996397 	1
3	3	1	41	1	3	NaN	2	2.996397 	1
3	3	1	42	3	3	NaN	2	2.996397 	1
3	3	1	43	2	4	0.8388	1	2.996397 	1
3	3	1	44	2	25	0.9872	1	2.996397 	1
3	3	1	45	2	21	1.0629	1	2.996397 	1
3	3	1	46	1	28	NaN	2	2.996397 	1
3	3	1	47	2	16	0.8173	1	2.996397 	1
3	3	1	48	2	9	1.0755	1	2.996397 	1
3	3	1	49	2	3	0.8226	1	2.996397 	1
3	3	1	50	1	34	3.5152	-1	2.996397 	0
3	3	1	51	2	11	0.6845	1	2.996397 	1
3	3	1	52	1	24	NaN	2	2.996397 	1
3	3	1	53	2	6	0.3763	1	2.996397 	1
3	3	1	54	2	31	0.9799	1	2.996397 	1
3	3	1	55	2	20	0.8846	1	2.996397 	1
3	3	1	56	2	15	0.9590	1	2.996397 	1
3	3	1	57	2	12	0.8908	1	2.996397 	1
3	3	1	58	2	33	0.8705	1	2.996397 	1
3	3	1	59	1	23	2.6008	-1	2.996397 	0
3	3	1	60	2	13	1.0619	1	2.996397 	1
3	3	1	61	2	30	0.9894	1	2.996397 	1
3	3	1	62	2	18	0.8629	1	2.996397 	1
3	3	1	63	1	25	NaN	2	2.996397 	1
3	3	1	64	1	14	NaN	2	2.996397 	1
3	3	1	65	1	35	NaN	2	2.996397 	1
3	3	1	66	1	16	NaN	2	2.996397 	1
3	3	1	67	1	22	NaN	2	2.996397 	1
3	3	1	68	2	23	0.7573	1	2.996397 	1
3	3	1	69	2	22	1.0147	1	2.996397 	1
3	3	1	70	1	2	NaN	2	2.996397 	1
3	3	1	71	1	32	NaN	2	2.996397 	1
3	3	1	72	2	5	1.0267	1	2.996397 	1
3	3	1	73	4	5	0.3487	1	2.996397 	1
3	3	1	74	1	20	NaN	2	2.996397 	1
3	3	1	75	1	5	NaN	2	2.996397 	1
3	3	1	76	1	19	2.7707	-1	2.996397 	0
3	3	1	77	1	13	NaN	2	2.996397 	1
3	3	1	78	2	35	0.9233	1	2.996397 	1
3	3	1	79	2	27	1.2024	1	2.996397 	1
3	3	1	80	2	10	0.9654	1	2.996397 	1
3	4	4	1	2	21	1.5383	1	3.391752 	1
3	4	4	2	1	17	NaN	2	3.391752 	1
3	4	4	3	2	3	1.3375	1	3.391752 	1
3	4	4	4	1	20	3.8156	-1	3.391752 	0
3	4	4	5	1	12	NaN	2	3.391752 	1
3	4	4	6	3	2	NaN	2	3.391752 	1
3	4	4	7	2	26	1.3791	1	3.391752 	1
3	4	4	8	1	24	4.2402	-1	3.391752 	0
3	4	4	9	2	27	1.7630	1	3.391752 	1
3	4	4	10	2	14	1.5785	1	3.391752 	1
3	4	4	11	2	32	1.4460	1	3.391752 	1
3	4	4	12	3	5	NaN	2	3.391752 	1
3	4	4	13	2	34	1.4499	1	3.391752 	1
3	4	4	14	2	8	1.0540	1	3.391752 	1
3	4	4	15	4	1	0.3296	1	3.391752 	1
3	4	4	16	2	11	1.8577	1	3.391752 	1
3	4	4	17	1	11	NaN	2	3.391752 	1
3	4	4	18	2	29	1.4753	1	3.391752 	1
3	4	4	19	1	4	NaN	2	3.391752 	1
3	4	4	20	1	5	NaN	2	3.391752 	1
3	4	4	21	2	24	1.5099	1	3.391752 	1
3	4	4	22	2	18	1.4336	1	3.391752 	1
3	4	4	23	2	5	1.3720	1	3.391752 	1
3	4	4	24	2	35	1.2296	1	3.391752 	1
3	4	4	25	3	1	NaN	2	3.391752 	1
3	4	4	26	2	19	1.3554	1	3.391752 	1
3	4	4	27	2	33	1.4928	1	3.391752 	1
3	4	4	28	2	1	1.1773	1	3.391752 	1
3	4	4	29	2	4	1.4551	1	3.391752 	1
3	4	4	30	1	19	NaN	2	3.391752 	1
3	4	4	31	1	6	NaN	2	3.391752 	1
3	4	4	32	2	20	1.1329	1	3.391752 	1
3	4	4	33	2	30	1.5458	1	3.391752 	1
3	4	4	34	1	10	3.4803	-1	3.391752 	0
3	4	4	35	1	13	NaN	2	3.391752 	1
3	4	4	36	1	16	NaN	2	3.391752 	1
3	4	4	37	2	28	1.3057	1	3.391752 	1
3	4	4	38	2	17	1.7303	1	3.391752 	1
3	4	4	39	1	26	NaN	2	3.391752 	1
3	4	4	40	2	12	1.0178	1	3.391752 	1
3	4	4	41	1	18	NaN	2	3.391752 	1
3	4	4	42	1	29	4.1518	-1	3.391752 	0
3	4	4	43	1	9	NaN	2	3.391752 	1
3	4	4	44	1	23	NaN	2	3.391752 	1
3	4	4	45	3	3	NaN	2	3.391752 	1
3	4	4	46	2	16	1.5328	1	3.391752 	1
3	4	4	47	2	2	1.6112	1	3.391752 	1
3	4	4	48	2	10	1.5172	1	3.391752 	1
3	4	4	49	1	33	NaN	2	3.391752 	1
3	4	4	50	1	34	NaN	2	3.391752 	1
3	4	4	51	2	23	1.4712	1	3.391752 	1
3	4	4	52	1	21	NaN	2	3.391752 	1
3	4	4	53	2	7	1.0810	1	3.391752 	1
3	4	4	54	1	31	NaN	2	3.391752 	1
3	4	4	55	1	3	NaN	2	3.391752 	1
3	4	4	56	1	14	NaN	2	3.391752 	1
3	4	4	57	1	30	NaN	2	3.391752 	1
3	4	4	58	1	8	NaN	2	3.391752 	1
3	4	4	59	4	2	0.3318	1	3.391752 	1
3	4	4	60	1	22	NaN	2	3.391752 	1
3	4	4	61	2	25	1.1590	1	3.391752 	1
3	4	4	62	3	4	NaN	2	3.391752 	1
3	4	4	63	2	31	1.9392	1	3.391752 	1
3	4	4	64	1	35	NaN	2	3.391752 	1
3	4	4	65	1	1	NaN	2	3.391752 	1
3	4	4	66	2	9	1.2833	1	3.391752 	1
3	4	4	67	2	15	1.0022	1	3.391752 	1
3	4	4	68	1	15	NaN	2	3.391752 	1
3	4	4	69	4	3	0.3501	1	3.391752 	1
3	4	4	70	1	7	NaN	2	3.391752 	1
3	4	4	71	4	5	0.2980	1	3.391752 	1
3	4	4	72	1	32	NaN	2	3.391752 	1
3	4	4	73	1	2	NaN	2	3.391752 	1
3	4	4	74	1	28	NaN	2	3.391752 	1
3	4	4	75	2	6	1.6753	1	3.391752 	1
3	4	4	76	2	22	1.5281	1	3.391752 	1
3	4	4	77	4	4	0.3240	1	3.391752 	1
3	4	4	78	1	25	4.1428	-1	3.391752 	0
3	4	4	79	1	27	NaN	2	3.391752 	1
3	4	4	80	2	13	1.5583	1	3.391752 	1
3	5	3	1	1	4	NaN	2	2.800550 	1
3	5	3	2	1	5	NaN	2	2.800550 	1
3	5	3	3	2	7	2.3540	1	2.800550 	1
3	5	3	4	2	9	-1.0102	-2	2.800550 	0
3	5	3	5	1	8	NaN	2	2.800550 	1
3	5	3	6	2	16	2.7421	1	2.800550 	1
3	5	3	7	1	23	NaN	2	2.800550 	1
3	5	3	8	2	33	2.8102	1	2.800550 	1
3	5	3	9	3	3	NaN	2	2.800550 	1
3	5	3	10	1	14	NaN	2	2.800550 	1
3	5	3	11	1	28	NaN	2	2.800550 	1
3	5	3	12	1	26	NaN	2	2.800550 	1
3	5	3	13	3	4	NaN	2	2.800550 	1
3	5	3	14	2	20	2.0181	1	2.800550 	1
3	5	3	15	3	2	NaN	2	2.800550 	1
3	5	3	16	2	24	1.7674	1	2.800550 	1
3	5	3	17	2	29	2.0403	1	2.800550 	1
3	5	3	18	2	32	0.9207	1	2.800550 	1
3	5	3	19	2	14	1.5467	1	2.800550 	1
3	5	3	20	2	34	0.7669	1	2.800550 	1
3	5	3	21	3	1	NaN	2	2.800550 	1
3	5	3	22	2	25	1.6586	1	2.800550 	1
3	5	3	23	1	16	NaN	2	2.800550 	1
3	5	3	24	2	28	-2.4064	-2	2.800550 	0
3	5	3	25	1	18	NaN	2	2.800550 	1
3	5	3	26	2	26	1.7731	1	2.800550 	1
3	5	3	27	2	19	1.5472	1	2.800550 	1
3	5	3	28	1	32	9.0162	-1	2.800550 	0
3	5	3	29	2	22	2.1566	1	2.800550 	1
3	5	3	30	1	24	NaN	2	2.800550 	1
3	5	3	31	1	6	NaN	2	2.800550 	1
3	5	3	32	4	4	0.3841	1	2.800550 	1
3	5	3	33	1	31	NaN	2	2.800550 	1
3	5	3	34	2	5	1.9515	1	2.800550 	1
3	5	3	35	2	8	2.3430	1	2.800550 	1
3	5	3	36	2	35	1.6135	1	2.800550 	1
3	5	3	37	2	21	1.6140	1	2.800550 	1
3	5	3	38	1	35	NaN	2	2.800550 	1
3	5	3	39	2	6	2.6016	1	2.800550 	1
3	5	3	40	1	2	NaN	2	2.800550 	1
3	5	3	41	2	2	NaN	0	2.800550 	0
3	5	3	42	2	17	1.9394	1	2.800550 	1
3	5	3	43	1	29	NaN	2	2.800550 	1
3	5	3	44	1	20	NaN	2	2.800550 	1
3	5	3	45	4	5	0.3969	1	2.800550 	1
3	5	3	46	2	10	2.4504	1	2.800550 	1
3	5	3	47	1	11	6.8552	-1	2.800550 	0
3	5	3	48	4	1	0.2574	1	2.800550 	1
3	5	3	49	4	2	0.3326	1	2.800550 	1
3	5	3	50	2	31	2.1454	1	2.800550 	1
3	5	3	51	1	17	NaN	2	2.800550 	1
3	5	3	52	1	10	NaN	2	2.800550 	1
3	5	3	53	2	12	1.7150	1	2.800550 	1
3	5	3	54	2	1	1.7995	1	2.800550 	1
3	5	3	55	2	23	1.8714	1	2.800550 	1
3	5	3	56	2	18	1.9054	1	2.800550 	1
3	5	3	57	1	9	NaN	2	2.800550 	1
3	5	3	58	2	13	1.6808	1	2.800550 	1
3	5	3	59	1	15	NaN	2	2.800550 	1
3	5	3	60	1	30	NaN	2	2.800550 	1
3	5	3	61	1	27	NaN	2	2.800550 	1
3	5	3	62	2	15	0.3739	1	2.800550 	1
3	5	3	63	2	11	-2.2452	-2	2.800550 	0
3	5	3	64	4	3	0.3404	1	2.800550 	1
3	5	3	65	1	1	NaN	2	2.800550 	1
3	5	3	66	2	30	2.0313	1	2.800550 	1
3	5	3	67	1	22	NaN	2	2.800550 	1
3	5	3	68	2	27	2.2307	1	2.800550 	1
3	5	3	69	2	3	2.4208	1	2.800550 	1
3	5	3	70	1	12	NaN	2	2.800550 	1
3	5	3	71	1	3	NaN	2	2.800550 	1
3	5	3	72	2	4	NaN	0	2.800550 	0
3	5	3	73	1	19	NaN	2	2.800550 	1
3	5	3	74	1	13	NaN	2	2.800550 	1
3	5	3	75	1	33	NaN	2	2.800550 	1
3	5	3	76	1	21	NaN	2	2.800550 	1
3	5	3	77	1	34	NaN	2	2.800550 	1
3	5	3	78	3	5	NaN	2	2.800550 	1
3	5	3	79	1	7	NaN	2	2.800550 	1
3	5	3	80	1	25	NaN	2	2.800550 	1
3	6	6	1	4	4	0.3495	1	2.808287 	1
3	6	6	2	2	22	2.8783	1	2.808287 	1
3	6	6	3	1	30	NaN	2	2.808287 	1
3	6	6	4	3	2	NaN	2	2.808287 	1
3	6	6	5	1	3	NaN	2	2.808287 	1
3	6	6	6	1	15	NaN	2	2.808287 	1
3	6	6	7	2	29	3.6450	1	2.808287 	1
3	6	6	8	1	27	NaN	2	2.808287 	1
3	6	6	9	1	35	NaN	2	2.808287 	1
3	6	6	10	2	28	4.8903	1	2.808287 	1
3	6	6	11	2	18	3.2519	1	2.808287 	1
3	6	6	12	1	14	NaN	2	2.808287 	1
3	6	6	13	2	11	3.0873	1	2.808287 	1
3	6	6	14	1	25	NaN	2	2.808287 	1
3	6	6	15	2	2	3.1949	1	2.808287 	1
3	6	6	16	1	8	8.4869	-1	2.808287 	0
3	6	6	17	1	18	6.5005	-1	2.808287 	0
3	6	6	18	1	28	NaN	2	2.808287 	1
3	6	6	19	3	4	NaN	2	2.808287 	1
3	6	6	20	1	24	NaN	2	2.808287 	1
3	6	6	21	4	1	0.2781	1	2.808287 	1
3	6	6	22	1	4	NaN	2	2.808287 	1
3	6	6	23	1	32	NaN	2	2.808287 	1
3	6	6	24	2	6	3.4003	1	2.808287 	1
3	6	6	25	4	2	0.2314	1	2.808287 	1
3	6	6	26	1	26	NaN	2	2.808287 	1
3	6	6	27	2	12	2.9142	1	2.808287 	1
3	6	6	28	1	16	NaN	2	2.808287 	1
3	6	6	29	2	16	5.1128	1	2.808287 	1
3	6	6	30	2	34	4.9574	1	2.808287 	1
3	6	6	31	4	3	0.3265	1	2.808287 	1
3	6	6	32	2	31	3.3625	1	2.808287 	1
3	6	6	33	2	35	3.0360	1	2.808287 	1
3	6	6	34	1	2	NaN	2	2.808287 	1
3	6	6	35	2	4	3.4586	1	2.808287 	1
3	6	6	36	2	21	3.4854	1	2.808287 	1
3	6	6	37	1	10	9.5042	-1	2.808287 	0
3	6	6	38	1	19	9.1069	-1	2.808287 	0
3	6	6	39	2	24	1.6509	1	2.808287 	1
3	6	6	40	1	34	NaN	2	2.808287 	1
3	6	6	41	2	14	4.1071	1	2.808287 	1
3	6	6	42	2	23	NaN	0	2.808287 	0
3	6	6	43	1	17	NaN	2	2.808287 	1
3	6	6	44	1	29	NaN	2	2.808287 	1
3	6	6	45	2	20	-1.5283	-2	2.808287 	0
3	6	6	46	2	26	3.1903	1	2.808287 	1
3	6	6	47	2	30	3.1762	1	2.808287 	1
3	6	6	48	1	7	NaN	2	2.808287 	1
3	6	6	49	1	11	NaN	2	2.808287 	1
3	6	6	50	2	27	3.3841	1	2.808287 	1
3	6	6	51	1	12	NaN	2	2.808287 	1
3	6	6	52	2	19	3.0862	1	2.808287 	1
3	6	6	53	1	22	10.3620	-1	2.808287 	0
3	6	6	54	2	10	3.0736	1	2.808287 	1
3	6	6	55	2	13	2.7580	1	2.808287 	1
3	6	6	56	2	3	3.4035	1	2.808287 	1
3	6	6	57	1	1	NaN	2	2.808287 	1
3	6	6	58	1	13	NaN	2	2.808287 	1
3	6	6	59	1	33	8.6563	-1	2.808287 	0
3	6	6	60	3	3	NaN	2	2.808287 	1
3	6	6	61	2	17	3.3658	1	2.808287 	1
3	6	6	62	2	33	3.1912	1	2.808287 	1
3	6	6	63	2	9	3.0386	1	2.808287 	1
3	6	6	64	2	25	3.0055	1	2.808287 	1
3	6	6	65	1	20	NaN	2	2.808287 	1
3	6	6	66	3	1	NaN	2	2.808287 	1
3	6	6	67	2	1	4.6142	1	2.808287 	1
3	6	6	68	1	31	NaN	2	2.808287 	1
3	6	6	69	1	5	NaN	2	2.808287 	1
3	6	6	70	1	6	NaN	2	2.808287 	1
3	6	6	71	3	5	NaN	2	2.808287 	1
3	6	6	72	1	9	NaN	2	2.808287 	1
3	6	6	73	2	15	3.8074	1	2.808287 	1
3	6	6	74	1	23	NaN	2	2.808287 	1
3	6	6	75	4	5	0.3401	1	2.808287 	1
3	6	6	76	2	8	3.7085	1	2.808287 	1
3	6	6	77	2	7	3.3223	1	2.808287 	1
3	6	6	78	2	5	3.7958	1	2.808287 	1
3	6	6	79	2	32	2.3025	1	2.808287 	1
3	6	6	80	1	21	3.7576	-1	2.808287 	0
4	1	1	1	2	23	1.0432	1	4.201367 	1
4	1	1	2	2	1	1.0278	1	4.201367 	1
4	1	1	3	2	16	0.8372	1	4.201367 	1
4	1	1	4	3	5	NaN	2	4.201367 	1
4	1	1	5	2	12	0.9870	1	4.201367 	1
4	1	1	6	3	1	NaN	2	4.201367 	1
4	1	1	7	1	30	NaN	2	4.201367 	1
4	1	1	8	4	4	0.3407	1	4.201367 	1
4	1	1	9	1	1	NaN	2	4.201367 	1
4	1	1	10	1	5	NaN	2	4.201367 	1
4	1	1	11	2	34	0.7949	1	4.201367 	1
4	1	1	12	2	29	1.0273	1	4.201367 	1
4	1	1	13	2	2	0.8766	1	4.201367 	1
4	1	1	14	2	28	0.8530	1	4.201367 	1
4	1	1	15	1	22	NaN	2	4.201367 	1
4	1	1	16	2	21	0.7013	1	4.201367 	1
4	1	1	17	1	6	NaN	2	4.201367 	1
4	1	1	18	1	9	NaN	2	4.201367 	1
4	1	1	19	4	1	0.4300	1	4.201367 	1
4	1	1	20	1	19	NaN	2	4.201367 	1
4	1	1	21	2	20	0.9257	1	4.201367 	1
4	1	1	22	1	8	NaN	2	4.201367 	1
4	1	1	23	2	26	0.9645	1	4.201367 	1
4	1	1	24	3	3	NaN	2	4.201367 	1
4	1	1	25	1	10	NaN	2	4.201367 	1
4	1	1	26	1	4	NaN	2	4.201367 	1
4	1	1	27	1	26	NaN	2	4.201367 	1
4	1	1	28	2	15	0.9137	1	4.201367 	1
4	1	1	29	1	24	NaN	2	4.201367 	1
4	1	1	30	1	20	NaN	2	4.201367 	1
4	1	1	31	1	35	NaN	2	4.201367 	1
4	1	1	32	2	10	0.8759	1	4.201367 	1
4	1	1	33	2	18	0.8833	1	4.201367 	1
4	1	1	34	2	32	0.7928	1	4.201367 	1
4	1	1	35	4	5	0.3268	1	4.201367 	1
4	1	1	36	2	19	0.7973	1	4.201367 	1
4	1	1	37	1	13	NaN	2	4.201367 	1
4	1	1	38	1	32	NaN	2	4.201367 	1
4	1	1	39	2	5	0.9446	1	4.201367 	1
4	1	1	40	1	3	NaN	2	4.201367 	1
4	1	1	41	2	11	0.7280	1	4.201367 	1
4	1	1	42	2	25	0.9667	1	4.201367 	1
4	1	1	43	4	3	0.3576	1	4.201367 	1
4	1	1	44	2	8	1.0081	1	4.201367 	1
4	1	1	45	2	13	0.8349	1	4.201367 	1
4	1	1	46	1	21	NaN	2	4.201367 	1
4	1	1	47	2	22	0.9766	1	4.201367 	1
4	1	1	48	2	31	0.9329	1	4.201367 	1
4	1	1	49	2	24	0.9163	1	4.201367 	1
4	1	1	50	3	4	NaN	2	4.201367 	1
4	1	1	51	1	18	NaN	2	4.201367 	1
4	1	1	52	2	4	0.7399	1	4.201367 	1
4	1	1	53	2	7	0.8142	1	4.201367 	1
4	1	1	54	3	2	NaN	2	4.201367 	1
4	1	1	55	1	25	NaN	2	4.201367 	1
4	1	1	56	1	2	NaN	2	4.201367 	1
4	1	1	57	2	3	0.8790	1	4.201367 	1
4	1	1	58	1	34	NaN	2	4.201367 	1
4	1	1	59	2	14	0.9262	1	4.201367 	1
4	1	1	60	2	27	0.8338	1	4.201367 	1
4	1	1	61	1	16	NaN	2	4.201367 	1
4	1	1	62	2	35	0.8546	1	4.201367 	1
4	1	1	63	2	17	0.8841	1	4.201367 	1
4	1	1	64	1	29	3.4841	-1	4.201367 	0
4	1	1	65	2	9	1.0656	1	4.201367 	1
4	1	1	66	2	33	0.8186	1	4.201367 	1
4	1	1	67	1	7	NaN	2	4.201367 	1
4	1	1	68	1	28	NaN	2	4.201367 	1
4	1	1	69	1	17	NaN	2	4.201367 	1
4	1	1	70	1	14	NaN	2	4.201367 	1
4	1	1	71	1	11	NaN	2	4.201367 	1
4	1	1	72	1	27	NaN	2	4.201367 	1
4	1	1	73	1	33	NaN	2	4.201367 	1
4	1	1	74	4	2	0.3872	1	4.201367 	1
4	1	1	75	2	6	0.8955	1	4.201367 	1
4	1	1	76	1	15	NaN	2	4.201367 	1
4	1	1	77	1	23	NaN	2	4.201367 	1
4	1	1	78	2	30	0.9458	1	4.201367 	1
4	1	1	79	1	31	NaN	2	4.201367 	1
4	1	1	80	1	12	NaN	2	4.201367 	1
4	2	4	1	3	3	NaN	2	4.201367 	1
4	2	4	2	1	9	NaN	2	4.201367 	1
4	2	4	3	2	33	1.3281	1	4.201367 	1
4	2	4	4	2	25	1.3522	1	4.201367 	1
4	2	4	5	1	6	NaN	2	4.201367 	1
4	2	4	6	1	25	NaN	2	4.201367 	1
4	2	4	7	3	5	NaN	2	4.201367 	1
4	2	4	8	2	9	1.2287	1	4.201367 	1
4	2	4	9	2	14	1.4786	1	4.201367 	1
4	2	4	10	1	27	NaN	2	4.201367 	1
4	2	4	11	1	35	NaN	2	4.201367 	1
4	2	4	12	2	20	1.2281	1	4.201367 	1
4	2	4	13	1	28	NaN	2	4.201367 	1
4	2	4	14	1	15	NaN	2	4.201367 	1
4	2	4	15	4	2	0.4614	1	4.201367 	1
4	2	4	16	1	22	NaN	2	4.201367 	1
4	2	4	17	2	27	1.2652	1	4.201367 	1
4	2	4	18	1	3	NaN	2	4.201367 	1
4	2	4	19	1	26	NaN	2	4.201367 	1
4	2	4	20	2	29	1.1641	1	4.201367 	1
4	2	4	21	1	21	NaN	2	4.201367 	1
4	2	4	22	2	21	1.6179	1	4.201367 	1
4	2	4	23	1	18	3.6041	-1	4.201367 	0
4	2	4	24	2	16	1.1875	1	4.201367 	1
4	2	4	25	2	28	1.5096	1	4.201367 	1
4	2	4	26	1	7	NaN	2	4.201367 	1
4	2	4	27	4	4	0.3798	1	4.201367 	1
4	2	4	28	1	1	NaN	2	4.201367 	1
4	2	4	29	3	4	NaN	2	4.201367 	1
4	2	4	30	2	22	1.5335	1	4.201367 	1
4	2	4	31	2	5	1.3818	1	4.201367 	1
4	2	4	32	1	30	NaN	2	4.201367 	1
4	2	4	33	1	17	NaN	2	4.201367 	1
4	2	4	34	1	19	NaN	2	4.201367 	1
4	2	4	35	2	13	1.2042	1	4.201367 	1
4	2	4	36	1	12	NaN	2	4.201367 	1
4	2	4	37	1	23	NaN	2	4.201367 	1
4	2	4	38	2	11	1.2419	1	4.201367 	1
4	2	4	39	4	1	0.3629	1	4.201367 	1
4	2	4	40	1	31	NaN	2	4.201367 	1
4	2	4	41	1	11	NaN	2	4.201367 	1
4	2	4	42	1	4	NaN	2	4.201367 	1
4	2	4	43	2	6	1.3769	1	4.201367 	1
4	2	4	44	2	26	1.4815	1	4.201367 	1
4	2	4	45	2	7	1.2570	1	4.201367 	1
4	2	4	46	2	32	1.1785	1	4.201367 	1
4	2	4	47	2	8	1.3655	1	4.201367 	1
4	2	4	48	1	5	NaN	2	4.201367 	1
4	2	4	49	2	30	1.1384	1	4.201367 	1
4	2	4	50	1	2	NaN	2	4.201367 	1
4	2	4	51	4	3	0.3633	1	4.201367 	1
4	2	4	52	1	33	NaN	2	4.201367 	1
4	2	4	53	2	24	1.0485	1	4.201367 	1
4	2	4	54	2	19	1.3670	1	4.201367 	1
4	2	4	55	1	34	NaN	2	4.201367 	1
4	2	4	56	2	10	1.0418	1	4.201367 	1
4	2	4	57	1	16	NaN	2	4.201367 	1
4	2	4	58	2	18	1.4079	1	4.201367 	1
4	2	4	59	1	32	NaN	2	4.201367 	1
4	2	4	60	2	3	1.2583	1	4.201367 	1
4	2	4	61	1	20	NaN	2	4.201367 	1
4	2	4	62	2	2	0.8061	1	4.201367 	1
4	2	4	63	2	15	1.2169	1	4.201367 	1
4	2	4	64	2	17	1.2297	1	4.201367 	1
4	2	4	65	1	10	NaN	2	4.201367 	1
4	2	4	66	2	1	1.1736	1	4.201367 	1
4	2	4	67	1	8	NaN	2	4.201367 	1
4	2	4	68	1	13	NaN	2	4.201367 	1
4	2	4	69	2	35	1.1139	1	4.201367 	1
4	2	4	70	2	12	1.1235	1	4.201367 	1
4	2	4	71	2	34	1.3285	1	4.201367 	1
4	2	4	72	4	5	0.3512	1	4.201367 	1
4	2	4	73	3	2	NaN	2	4.201367 	1
4	2	4	74	3	1	NaN	2	4.201367 	1
4	2	4	75	2	4	1.3071	1	4.201367 	1
4	2	4	76	1	24	NaN	2	4.201367 	1
4	2	4	77	2	31	1.0804	1	4.201367 	1
4	2	4	78	1	14	NaN	2	4.201367 	1
4	2	4	79	1	29	NaN	2	4.201367 	1
4	2	4	80	2	23	1.2033	1	4.201367 	1
4	3	2	1	1	33	NaN	2	4.201367 	1
4	3	2	2	2	7	1.2035	1	4.201367 	1
4	3	2	3	2	17	1.3409	1	4.201367 	1
4	3	2	4	2	22	1.2938	1	4.201367 	1
4	3	2	5	2	35	1.3031	1	4.201367 	1
4	3	2	6	1	24	4.4941	-1	4.201367 	0
4	3	2	7	4	1	0.4341	1	4.201367 	1
4	3	2	8	2	6	1.4132	1	4.201367 	1
4	3	2	9	1	3	NaN	2	4.201367 	1
4	3	2	10	1	9	NaN	2	4.201367 	1
4	3	2	11	2	10	1.2009	1	4.201367 	1
4	3	2	12	1	18	NaN	2	4.201367 	1
4	3	2	13	1	4	NaN	2	4.201367 	1
4	3	2	14	1	13	NaN	2	4.201367 	1
4	3	2	15	4	3	0.4129	1	4.201367 	1
4	3	2	16	1	34	NaN	2	4.201367 	1
4	3	2	17	2	9	1.3577	1	4.201367 	1
4	3	2	18	4	5	0.3923	1	4.201367 	1
4	3	2	19	1	16	NaN	2	4.201367 	1
4	3	2	20	1	32	NaN	2	4.201367 	1
4	3	2	21	3	3	NaN	2	4.201367 	1
4	3	2	22	1	7	NaN	2	4.201367 	1
4	3	2	23	4	4	0.3075	1	4.201367 	1
4	3	2	24	3	4	NaN	2	4.201367 	1
4	3	2	25	2	11	1.1323	1	4.201367 	1
4	3	2	26	2	18	1.3539	1	4.201367 	1
4	3	2	27	1	6	NaN	2	4.201367 	1
4	3	2	28	3	5	NaN	2	4.201367 	1
4	3	2	29	1	14	NaN	2	4.201367 	1
4	3	2	30	1	28	NaN	2	4.201367 	1
4	3	2	31	3	2	NaN	2	4.201367 	1
4	3	2	32	1	23	NaN	2	4.201367 	1
4	3	2	33	1	15	NaN	2	4.201367 	1
4	3	2	34	2	26	1.2461	1	4.201367 	1
4	3	2	35	1	26	NaN	2	4.201367 	1
4	3	2	36	2	19	1.2329	1	4.201367 	1
4	3	2	37	1	19	NaN	2	4.201367 	1
4	3	2	38	1	29	NaN	2	4.201367 	1
4	3	2	39	2	27	1.1551	1	4.201367 	1
4	3	2	40	2	31	1.1021	1	4.201367 	1
4	3	2	41	1	12	NaN	2	4.201367 	1
4	3	2	42	3	1	NaN	2	4.201367 	1
4	3	2	43	2	21	1.4805	1	4.201367 	1
4	3	2	44	2	2	1.5182	1	4.201367 	1
4	3	2	45	2	8	1.2006	1	4.201367 	1
4	3	2	46	1	20	NaN	2	4.201367 	1
4	3	2	47	2	14	1.1917	1	4.201367 	1
4	3	2	48	2	1	1.3845	1	4.201367 	1
4	3	2	49	2	4	1.3361	1	4.201367 	1
4	3	2	50	1	21	NaN	2	4.201367 	1
4	3	2	51	2	33	1.3127	1	4.201367 	1
4	3	2	52	1	25	NaN	2	4.201367 	1
4	3	2	53	2	23	1.2320	1	4.201367 	1
4	3	2	54	2	30	1.3220	1	4.201367 	1
4	3	2	55	2	20	1.1462	1	4.201367 	1
4	3	2	56	2	13	1.2236	1	4.201367 	1
4	3	2	57	2	5	1.2467	1	4.201367 	1
4	3	2	58	2	16	1.1148	1	4.201367 	1
4	3	2	59	1	31	NaN	2	4.201367 	1
4	3	2	60	2	15	1.4169	1	4.201367 	1
4	3	2	61	2	29	1.4389	1	4.201367 	1
4	3	2	62	2	12	1.3676	1	4.201367 	1
4	3	2	63	1	27	NaN	2	4.201367 	1
4	3	2	64	1	8	NaN	2	4.201367 	1
4	3	2	65	1	1	NaN	2	4.201367 	1
4	3	2	66	1	5	NaN	2	4.201367 	1
4	3	2	67	1	17	NaN	2	4.201367 	1
4	3	2	68	2	34	1.1443	1	4.201367 	1
4	3	2	69	2	24	1.2902	1	4.201367 	1
4	3	2	70	1	22	NaN	2	4.201367 	1
4	3	2	71	1	10	NaN	2	4.201367 	1
4	3	2	72	2	3	1.4109	1	4.201367 	1
4	3	2	73	4	2	0.3626	1	4.201367 	1
4	3	2	74	1	2	NaN	2	4.201367 	1
4	3	2	75	1	30	NaN	2	4.201367 	1
4	3	2	76	1	35	NaN	2	4.201367 	1
4	3	2	77	1	11	NaN	2	4.201367 	1
4	3	2	78	2	25	1.2721	1	4.201367 	1
4	3	2	79	2	28	1.3916	1	4.201367 	1
4	3	2	80	2	32	1.2465	1	4.201367 	1
4	4	5	1	2	16	2.3124	1	4.482805 	1
4	4	5	2	1	25	NaN	2	4.482805 	1
4	4	5	3	2	26	2.1707	1	4.482805 	1
4	4	5	4	1	24	NaN	2	4.482805 	1
4	4	5	5	1	12	NaN	2	4.482805 	1
4	4	5	6	3	1	NaN	2	4.482805 	1
4	4	5	7	2	31	2.4949	1	4.482805 	1
4	4	5	8	1	31	NaN	2	4.482805 	1
4	4	5	9	2	24	2.2779	1	4.482805 	1
4	4	5	10	2	13	2.2170	1	4.482805 	1
4	4	5	11	2	34	2.1163	1	4.482805 	1
4	4	5	12	3	3	NaN	2	4.482805 	1
4	4	5	13	2	2	2.8131	1	4.482805 	1
4	4	5	14	2	6	2.4018	1	4.482805 	1
4	4	5	15	4	5	0.3783	1	4.482805 	1
4	4	5	16	2	21	2.5460	1	4.482805 	1
4	4	5	17	1	2	NaN	2	4.482805 	1
4	4	5	18	2	27	1.7112	1	4.482805 	1
4	4	5	19	1	9	NaN	2	4.482805 	1
4	4	5	20	1	27	NaN	2	4.482805 	1
4	4	5	21	2	7	2.2590	1	4.482805 	1
4	4	5	22	2	14	2.1306	1	4.482805 	1
4	4	5	23	2	17	2.0927	1	4.482805 	1
4	4	5	24	2	4	1.7926	1	4.482805 	1
4	4	5	25	3	5	NaN	2	4.482805 	1
4	4	5	26	2	33	1.8781	1	4.482805 	1
4	4	5	27	2	23	2.0357	1	4.482805 	1
4	4	5	28	2	9	1.7440	1	4.482805 	1
4	4	5	29	2	30	2.2019	1	4.482805 	1
4	4	5	30	1	15	NaN	2	4.482805 	1
4	4	5	31	1	26	NaN	2	4.482805 	1
4	4	5	32	2	22	1.6749	1	4.482805 	1
4	4	5	33	2	5	1.7839	1	4.482805 	1
4	4	5	34	1	19	NaN	2	4.482805 	1
4	4	5	35	1	30	NaN	2	4.482805 	1
4	4	5	36	1	22	NaN	2	4.482805 	1
4	4	5	37	2	1	1.8684	1	4.482805 	1
4	4	5	38	2	29	2.1015	1	4.482805 	1
4	4	5	39	1	23	NaN	2	4.482805 	1
4	4	5	40	2	10	2.0063	1	4.482805 	1
4	4	5	41	1	10	NaN	2	4.482805 	1
4	4	5	42	1	16	NaN	2	4.482805 	1
4	4	5	43	1	13	NaN	2	4.482805 	1
4	4	5	44	1	7	NaN	2	4.482805 	1
4	4	5	45	3	2	NaN	2	4.482805 	1
4	4	5	46	2	11	2.3011	1	4.482805 	1
4	4	5	47	2	15	2.2075	1	4.482805 	1
4	4	5	48	2	3	2.3366	1	4.482805 	1
4	4	5	49	1	29	NaN	2	4.482805 	1
4	4	5	50	1	20	NaN	2	4.482805 	1
4	4	5	51	2	35	1.6309	1	4.482805 	1
4	4	5	52	1	8	NaN	2	4.482805 	1
4	4	5	53	2	19	2.0361	1	4.482805 	1
4	4	5	54	1	14	NaN	2	4.482805 	1
4	4	5	55	1	5	NaN	2	4.482805 	1
4	4	5	56	1	11	NaN	2	4.482805 	1
4	4	5	57	1	34	NaN	2	4.482805 	1
4	4	5	58	1	21	NaN	2	4.482805 	1
4	4	5	59	4	1	0.3572	1	4.482805 	1
4	4	5	60	1	4	NaN	2	4.482805 	1
4	4	5	61	2	8	1.6560	1	4.482805 	1
4	4	5	62	3	4	NaN	2	4.482805 	1
4	4	5	63	2	20	2.2643	1	4.482805 	1
4	4	5	64	1	33	NaN	2	4.482805 	1
4	4	5	65	1	17	NaN	2	4.482805 	1
4	4	5	66	2	25	2.0224	1	4.482805 	1
4	4	5	67	2	28	1.8524	1	4.482805 	1
4	4	5	68	1	28	NaN	2	4.482805 	1
4	4	5	69	4	3	0.3679	1	4.482805 	1
4	4	5	70	1	35	NaN	2	4.482805 	1
4	4	5	71	4	4	0.3190	1	4.482805 	1
4	4	5	72	1	32	NaN	2	4.482805 	1
4	4	5	73	1	3	NaN	2	4.482805 	1
4	4	5	74	1	6	NaN	2	4.482805 	1
4	4	5	75	2	18	1.8047	1	4.482805 	1
4	4	5	76	2	12	1.5649	1	4.482805 	1
4	4	5	77	4	2	0.3456	1	4.482805 	1
4	4	5	78	1	1	NaN	2	4.482805 	1
4	4	5	79	1	18	NaN	2	4.482805 	1
4	4	5	80	2	32	1.8538	1	4.482805 	1
4	5	3	1	1	31	NaN	2	3.680934 	1
4	5	3	2	1	4	7.8599	-1	3.680934 	0
4	5	3	3	2	4	2.1505	1	3.680934 	1
4	5	3	4	2	29	2.4235	1	3.680934 	1
4	5	3	5	1	16	NaN	2	3.680934 	1
4	5	3	6	2	13	1.6274	1	3.680934 	1
4	5	3	7	1	13	NaN	2	3.680934 	1
4	5	3	8	2	22	1.7291	1	3.680934 	1
4	5	3	9	3	3	NaN	2	3.680934 	1
4	5	3	10	1	34	NaN	2	3.680934 	1
4	5	3	11	1	35	NaN	2	3.680934 	1
4	5	3	12	1	11	NaN	2	3.680934 	1
4	5	3	13	3	1	NaN	2	3.680934 	1
4	5	3	14	2	3	1.5105	1	3.680934 	1
4	5	3	15	3	2	NaN	2	3.680934 	1
4	5	3	16	2	16	1.9589	1	3.680934 	1
4	5	3	17	2	19	2.1663	1	3.680934 	1
4	5	3	18	2	6	1.7913	1	3.680934 	1
4	5	3	19	2	15	1.9197	1	3.680934 	1
4	5	3	20	2	5	1.7710	1	3.680934 	1
4	5	3	21	3	4	NaN	2	3.680934 	1
4	5	3	22	2	12	1.4470	1	3.680934 	1
4	5	3	23	1	2	NaN	2	3.680934 	1
4	5	3	24	2	25	1.3542	1	3.680934 	1
4	5	3	25	1	15	NaN	2	3.680934 	1
4	5	3	26	2	31	1.5928	1	3.680934 	1
4	5	3	27	2	28	1.7299	1	3.680934 	1
4	5	3	28	1	6	8.0262	-1	3.680934 	0
4	5	3	29	2	18	2.0041	1	3.680934 	1
4	5	3	30	1	27	NaN	2	3.680934 	1
4	5	3	31	1	29	NaN	2	3.680934 	1
4	5	3	32	4	1	0.3564	1	3.680934 	1
4	5	3	33	1	9	NaN	2	3.680934 	1
4	5	3	34	2	1	1.5835	1	3.680934 	1
4	5	3	35	2	23	1.6109	1	3.680934 	1
4	5	3	36	2	8	0.9904	1	3.680934 	1
4	5	3	37	2	20	1.4122	1	3.680934 	1
4	5	3	38	1	5	NaN	2	3.680934 	1
4	5	3	39	2	26	1.1060	1	3.680934 	1
4	5	3	40	1	26	NaN	2	3.680934 	1
4	5	3	41	2	11	1.3225	1	3.680934 	1
4	5	3	42	2	7	1.5558	1	3.680934 	1
4	5	3	43	1	20	NaN	2	3.680934 	1
4	5	3	44	1	14	NaN	2	3.680934 	1
4	5	3	45	4	2	0.3407	1	3.680934 	1
4	5	3	46	2	2	1.7862	1	3.680934 	1
4	5	3	47	1	12	NaN	2	3.680934 	1
4	5	3	48	4	5	0.3330	1	3.680934 	1
4	5	3	49	4	3	0.4224	1	3.680934 	1
4	5	3	50	2	32	1.4801	1	3.680934 	1
4	5	3	51	1	17	NaN	2	3.680934 	1
4	5	3	52	1	32	NaN	2	3.680934 	1
4	5	3	53	2	34	1.4988	1	3.680934 	1
4	5	3	54	2	27	1.9549	1	3.680934 	1
4	5	3	55	2	10	1.4490	1	3.680934 	1
4	5	3	56	2	35	1.5637	1	3.680934 	1
4	5	3	57	1	18	NaN	2	3.680934 	1
4	5	3	58	2	9	1.6409	1	3.680934 	1
4	5	3	59	1	30	NaN	2	3.680934 	1
4	5	3	60	1	3	NaN	2	3.680934 	1
4	5	3	61	1	22	NaN	2	3.680934 	1
4	5	3	62	2	24	1.7078	1	3.680934 	1
4	5	3	63	2	21	1.6834	1	3.680934 	1
4	5	3	64	4	4	0.3993	1	3.680934 	1
4	5	3	65	1	10	NaN	2	3.680934 	1
4	5	3	66	2	30	1.5082	1	3.680934 	1
4	5	3	67	1	19	NaN	2	3.680934 	1
4	5	3	68	2	33	1.9067	1	3.680934 	1
4	5	3	69	2	17	1.7264	1	3.680934 	1
4	5	3	70	1	7	NaN	2	3.680934 	1
4	5	3	71	1	25	9.0498	-1	3.680934 	0
4	5	3	72	2	14	1.7016	1	3.680934 	1
4	5	3	73	1	24	NaN	2	3.680934 	1
4	5	3	74	1	8	NaN	2	3.680934 	1
4	5	3	75	1	1	NaN	2	3.680934 	1
4	5	3	76	1	21	NaN	2	3.680934 	1
4	5	3	77	1	23	NaN	2	3.680934 	1
4	5	3	78	3	5	NaN	2	3.680934 	1
4	5	3	79	1	33	NaN	2	3.680934 	1
4	5	3	80	1	28	NaN	2	3.680934 	1
4	6	6	1	4	5	0.3580	1	3.391752 	1
4	6	6	2	2	11	2.9700	1	3.391752 	1
4	6	6	3	1	25	8.1185	-1	3.391752 	0
4	6	6	4	3	2	NaN	2	3.391752 	1
4	6	6	5	1	18	NaN	2	3.391752 	1
4	6	6	6	1	34	NaN	2	3.391752 	1
4	6	6	7	2	21	3.4052	1	3.391752 	1
4	6	6	8	1	10	NaN	2	3.391752 	1
4	6	6	9	1	1	NaN	2	3.391752 	1
4	6	6	10	2	16	3.8885	1	3.391752 	1
4	6	6	11	2	8	2.9305	1	3.391752 	1
4	6	6	12	1	13	NaN	2	3.391752 	1
4	6	6	13	2	20	2.6076	1	3.391752 	1
4	6	6	14	1	26	NaN	2	3.391752 	1
4	6	6	15	2	1	2.9562	1	3.391752 	1
4	6	6	16	1	14	NaN	2	3.391752 	1
4	6	6	17	1	24	NaN	2	3.391752 	1
4	6	6	18	1	4	NaN	2	3.391752 	1
4	6	6	19	3	4	NaN	2	3.391752 	1
4	6	6	20	1	30	NaN	2	3.391752 	1
4	6	6	21	4	4	0.3654	1	3.391752 	1
4	6	6	22	1	3	NaN	2	3.391752 	1
4	6	6	23	1	2	NaN	2	3.391752 	1
4	6	6	24	2	12	2.7561	1	3.391752 	1
4	6	6	25	4	3	0.3998	1	3.391752 	1
4	6	6	26	1	15	NaN	2	3.391752 	1
4	6	6	27	2	28	4.5310	1	3.391752 	1
4	6	6	28	1	28	NaN	2	3.391752 	1
4	6	6	29	2	35	2.6531	1	3.391752 	1
4	6	6	30	2	7	4.0235	1	3.391752 	1
4	6	6	31	4	1	0.3886	1	3.391752 	1
4	6	6	32	2	2	3.1334	1	3.391752 	1
4	6	6	33	2	34	3.7039	1	3.391752 	1
4	6	6	34	1	12	NaN	2	3.391752 	1
4	6	6	35	2	33	2.8869	1	3.391752 	1
4	6	6	36	2	18	3.7754	1	3.391752 	1
4	6	6	37	1	32	NaN	2	3.391752 	1
4	6	6	38	1	29	NaN	2	3.391752 	1
4	6	6	39	2	5	3.4250	1	3.391752 	1
4	6	6	40	1	7	NaN	2	3.391752 	1
4	6	6	41	2	23	3.3659	1	3.391752 	1
4	6	6	42	2	15	1.9107	1	3.391752 	1
4	6	6	43	1	11	NaN	2	3.391752 	1
4	6	6	44	1	27	NaN	2	3.391752 	1
4	6	6	45	2	30	3.6091	1	3.391752 	1
4	6	6	46	2	27	2.5147	1	3.391752 	1
4	6	6	47	2	17	2.4184	1	3.391752 	1
4	6	6	48	1	23	10.3008	-1	3.391752 	0
4	6	6	49	1	6	NaN	2	3.391752 	1
4	6	6	50	2	31	4.1179	1	3.391752 	1
4	6	6	51	1	35	NaN	2	3.391752 	1
4	6	6	52	2	9	3.1847	1	3.391752 	1
4	6	6	53	1	31	NaN	2	3.391752 	1
4	6	6	54	2	25	2.9728	1	3.391752 	1
4	6	6	55	2	22	2.9405	1	3.391752 	1
4	6	6	56	2	3	2.7994	1	3.391752 	1
4	6	6	57	1	21	NaN	2	3.391752 	1
4	6	6	58	1	16	NaN	2	3.391752 	1
4	6	6	59	1	8	10.1012	-1	3.391752 	0
4	6	6	60	3	3	NaN	2	3.391752 	1
4	6	6	61	2	26	3.1057	1	3.391752 	1
4	6	6	62	2	19	2.8564	1	3.391752 	1
4	6	6	63	2	14	3.1803	1	3.391752 	1
4	6	6	64	2	6	2.6581	1	3.391752 	1
4	6	6	65	1	9	10.0987	-1	3.391752 	0
4	6	6	66	3	1	NaN	2	3.391752 	1
4	6	6	67	2	10	3.3591	1	3.391752 	1
4	6	6	68	1	17	NaN	2	3.391752 	1
4	6	6	69	1	22	11.0564	-1	3.391752 	0
4	6	6	70	1	5	NaN	2	3.391752 	1
4	6	6	71	3	5	NaN	2	3.391752 	1
4	6	6	72	1	19	NaN	2	3.391752 	1
4	6	6	73	2	24	2.8140	1	3.391752 	1
4	6	6	74	1	33	NaN	2	3.391752 	1
4	6	6	75	4	2	0.3402	1	3.391752 	1
4	6	6	76	2	29	3.3481	1	3.391752 	1
4	6	6	77	2	32	2.9388	1	3.391752 	1
4	6	6	78	2	13	2.5782	1	3.391752 	1
4	6	6	79	2	4	1.4083	1	3.391752 	1
4	6	6	80	1	20	NaN	2	3.391752 	1
5	1	2	1	2	30	1.1435	1	4.201367 	1
5	1	2	2	2	21	1.4583	1	4.201367 	1
5	1	2	3	2	35	1.0720	1	4.201367 	1
5	1	2	4	3	4	NaN	2	4.201367 	1
5	1	2	5	2	24	1.1756	1	4.201367 	1
5	1	2	6	3	1	NaN	2	4.201367 	1
5	1	2	7	1	28	NaN	2	4.201367 	1
5	1	2	8	4	2	0.4554	1	4.201367 	1
5	1	2	9	1	22	NaN	2	4.201367 	1
5	1	2	10	1	24	NaN	2	4.201367 	1
5	1	2	11	2	18	1.3367	1	4.201367 	1
5	1	2	12	2	5	1.3213	1	4.201367 	1
5	1	2	13	2	29	1.2008	1	4.201367 	1
5	1	2	14	2	17	1.1806	1	4.201367 	1
5	1	2	15	1	19	NaN	2	4.201367 	1
5	1	2	16	2	19	1.0876	1	4.201367 	1
5	1	2	17	1	2	5.9219	-1	4.201367 	0
5	1	2	18	1	20	NaN	2	4.201367 	1
5	1	2	19	4	4	0.4581	1	4.201367 	1
5	1	2	20	1	15	NaN	2	4.201367 	1
5	1	2	21	2	26	1.2934	1	4.201367 	1
5	1	2	22	1	5	NaN	2	4.201367 	1
5	1	2	23	2	1	1.0283	1	4.201367 	1
5	1	2	24	3	2	NaN	2	4.201367 	1
5	1	2	25	1	6	NaN	2	4.201367 	1
5	1	2	26	1	8	NaN	2	4.201367 	1
5	1	2	27	1	4	NaN	2	4.201367 	1
5	1	2	28	2	11	1.3244	1	4.201367 	1
5	1	2	29	1	10	NaN	2	4.201367 	1
5	1	2	30	1	23	NaN	2	4.201367 	1
5	1	2	31	1	11	NaN	2	4.201367 	1
5	1	2	32	2	7	1.3083	1	4.201367 	1
5	1	2	33	2	9	1.1696	1	4.201367 	1
5	1	2	34	2	31	1.2438	1	4.201367 	1
5	1	2	35	4	5	0.3835	1	4.201367 	1
5	1	2	36	2	32	1.3206	1	4.201367 	1
5	1	2	37	1	35	NaN	2	4.201367 	1
5	1	2	38	1	32	NaN	2	4.201367 	1
5	1	2	39	2	22	1.3425	1	4.201367 	1
5	1	2	40	1	29	NaN	2	4.201367 	1
5	1	2	41	2	4	1.1801	1	4.201367 	1
5	1	2	42	2	16	1.1448	1	4.201367 	1
5	1	2	43	4	1	0.3660	1	4.201367 	1
5	1	2	44	2	6	1.2490	1	4.201367 	1
5	1	2	45	2	12	1.2254	1	4.201367 	1
5	1	2	46	1	17	NaN	2	4.201367 	1
5	1	2	47	2	23	1.2723	1	4.201367 	1
5	1	2	48	2	13	1.1468	1	4.201367 	1
5	1	2	49	2	20	1.0603	1	4.201367 	1
5	1	2	50	3	5	NaN	2	4.201367 	1
5	1	2	51	1	13	NaN	2	4.201367 	1
5	1	2	52	2	28	1.1214	1	4.201367 	1
5	1	2	53	2	3	1.3510	1	4.201367 	1
5	1	2	54	3	3	NaN	2	4.201367 	1
5	1	2	55	1	21	NaN	2	4.201367 	1
5	1	2	56	1	27	NaN	2	4.201367 	1
5	1	2	57	2	25	1.1996	1	4.201367 	1
5	1	2	58	1	3	NaN	2	4.201367 	1
5	1	2	59	2	14	1.1786	1	4.201367 	1
5	1	2	60	2	34	1.1305	1	4.201367 	1
5	1	2	61	1	31	NaN	2	4.201367 	1
5	1	2	62	2	10	1.0931	1	4.201367 	1
5	1	2	63	2	8	1.1702	1	4.201367 	1
5	1	2	64	1	33	NaN	2	4.201367 	1
5	1	2	65	2	27	1.0811	1	4.201367 	1
5	1	2	66	2	2	0.9679	1	4.201367 	1
5	1	2	67	1	25	NaN	2	4.201367 	1
5	1	2	68	1	16	NaN	2	4.201367 	1
5	1	2	69	1	26	NaN	2	4.201367 	1
5	1	2	70	1	14	NaN	2	4.201367 	1
5	1	2	71	1	12	NaN	2	4.201367 	1
5	1	2	72	1	18	NaN	2	4.201367 	1
5	1	2	73	1	9	NaN	2	4.201367 	1
5	1	2	74	4	3	0.3522	1	4.201367 	1
5	1	2	75	2	33	1.1622	1	4.201367 	1
5	1	2	76	1	30	NaN	2	4.201367 	1
5	1	2	77	1	34	NaN	2	4.201367 	1
5	1	2	78	2	15	1.2210	1	4.201367 	1
5	1	2	79	1	7	NaN	2	4.201367 	1
5	1	2	80	1	1	NaN	2	4.201367 	1
5	2	5	1	3	3	NaN	2	3.886256 	1
5	2	5	2	1	22	4.9035	-1	3.886256 	0
5	2	5	3	2	7	2.5856	1	3.886256 	1
5	2	5	4	2	5	2.3288	1	3.886256 	1
5	2	5	5	1	13	NaN	2	3.886256 	1
5	2	5	6	1	16	NaN	2	3.886256 	1
5	2	5	7	3	2	NaN	2	3.886256 	1
5	2	5	8	2	19	2.2756	1	3.886256 	1
5	2	5	9	2	31	2.2599	1	3.886256 	1
5	2	5	10	1	23	NaN	2	3.886256 	1
5	2	5	11	1	7	NaN	2	3.886256 	1
5	2	5	12	2	14	2.2217	1	3.886256 	1
5	2	5	13	1	33	NaN	2	3.886256 	1
5	2	5	14	1	30	NaN	2	3.886256 	1
5	2	5	15	4	5	0.3337	1	3.886256 	1
5	2	5	16	1	4	NaN	2	3.886256 	1
5	2	5	17	2	29	2.2200	1	3.886256 	1
5	2	5	18	1	29	NaN	2	3.886256 	1
5	2	5	19	1	3	NaN	2	3.886256 	1
5	2	5	20	2	30	2.0441	1	3.886256 	1
5	2	5	21	1	1	NaN	2	3.886256 	1
5	2	5	22	2	12	1.7962	1	3.886256 	1
5	2	5	23	1	31	NaN	2	3.886256 	1
5	2	5	24	2	6	2.7426	1	3.886256 	1
5	2	5	25	2	35	2.1805	1	3.886256 	1
5	2	5	26	1	19	NaN	2	3.886256 	1
5	2	5	27	4	2	0.3518	1	3.886256 	1
5	2	5	28	1	34	NaN	2	3.886256 	1
5	2	5	29	3	1	NaN	2	3.886256 	1
5	2	5	30	2	2	2.0420	1	3.886256 	1
5	2	5	31	2	33	2.0059	1	3.886256 	1
5	2	5	32	1	2	NaN	2	3.886256 	1
5	2	5	33	1	21	NaN	2	3.886256 	1
5	2	5	34	1	12	NaN	2	3.886256 	1
5	2	5	35	2	20	2.0682	1	3.886256 	1
5	2	5	36	1	27	NaN	2	3.886256 	1
5	2	5	37	1	28	NaN	2	3.886256 	1
5	2	5	38	2	25	1.6800	1	3.886256 	1
5	2	5	39	4	4	0.4636	1	3.886256 	1
5	2	5	40	1	25	NaN	2	3.886256 	1
5	2	5	41	1	5	NaN	2	3.886256 	1
5	2	5	42	1	17	NaN	2	3.886256 	1
5	2	5	43	2	23	1.6136	1	3.886256 	1
5	2	5	44	2	17	2.1570	1	3.886256 	1
5	2	5	45	2	15	2.0177	1	3.886256 	1
5	2	5	46	2	8	2.0918	1	3.886256 	1
5	2	5	47	2	10	1.9374	1	3.886256 	1
5	2	5	48	1	24	NaN	2	3.886256 	1
5	2	5	49	2	4	1.5534	1	3.886256 	1
5	2	5	50	1	8	NaN	2	3.886256 	1
5	2	5	51	4	1	0.2877	1	3.886256 	1
5	2	5	52	1	11	NaN	2	3.886256 	1
5	2	5	53	2	34	1.7996	1	3.886256 	1
5	2	5	54	2	1	2.0341	1	3.886256 	1
5	2	5	55	1	9	NaN	2	3.886256 	1
5	2	5	56	2	16	2.0645	1	3.886256 	1
5	2	5	57	1	32	NaN	2	3.886256 	1
5	2	5	58	2	24	2.0179	1	3.886256 	1
5	2	5	59	1	18	NaN	2	3.886256 	1
5	2	5	60	2	9	1.7709	1	3.886256 	1
5	2	5	61	1	6	NaN	2	3.886256 	1
5	2	5	62	2	18	1.0561	1	3.886256 	1
5	2	5	63	2	21	1.9540	1	3.886256 	1
5	2	5	64	2	32	2.0691	1	3.886256 	1
5	2	5	65	1	20	NaN	2	3.886256 	1
5	2	5	66	2	26	1.6831	1	3.886256 	1
5	2	5	67	1	10	NaN	2	3.886256 	1
5	2	5	68	1	35	NaN	2	3.886256 	1
5	2	5	69	2	27	2.2952	1	3.886256 	1
5	2	5	70	2	28	1.8874	1	3.886256 	1
5	2	5	71	2	22	2.0003	1	3.886256 	1
5	2	5	72	4	3	0.2973	1	3.886256 	1
5	2	5	73	3	4	NaN	2	3.886256 	1
5	2	5	74	3	5	NaN	2	3.886256 	1
5	2	5	75	2	3	1.6051	1	3.886256 	1
5	2	5	76	1	14	NaN	2	3.886256 	1
5	2	5	77	2	11	1.6995	1	3.886256 	1
5	2	5	78	1	26	NaN	2	3.886256 	1
5	2	5	79	1	15	6.1093	-1	3.886256 	0
5	2	5	80	2	13	2.5502	1	3.886256 	1
5	3	3	1	1	23	NaN	2	3.886256 	1
5	3	3	2	2	12	1.9698	1	3.886256 	1
5	3	3	3	2	23	0.9931	1	3.886256 	1
5	3	3	4	2	11	1.4897	1	3.886256 	1
5	3	3	5	2	10	1.2165	1	3.886256 	1
5	3	3	6	1	31	NaN	2	3.886256 	1
5	3	3	7	4	1	0.4670	1	3.886256 	1
5	3	3	8	2	1	1.5497	1	3.886256 	1
5	3	3	9	1	20	8.7477	-1	3.886256 	0
5	3	3	10	1	16	NaN	2	3.886256 	1
5	3	3	11	2	32	1.6535	1	3.886256 	1
5	3	3	12	1	19	NaN	2	3.886256 	1
5	3	3	13	1	26	NaN	2	3.886256 	1
5	3	3	14	1	14	NaN	2	3.886256 	1
5	3	3	15	4	5	0.4920	1	3.886256 	1
5	3	3	16	1	11	NaN	2	3.886256 	1
5	3	3	17	2	20	1.7238	1	3.886256 	1
5	3	3	18	4	2	0.3929	1	3.886256 	1
5	3	3	19	1	28	NaN	2	3.886256 	1
5	3	3	20	1	22	NaN	2	3.886256 	1
5	3	3	21	3	2	NaN	2	3.886256 	1
5	3	3	22	1	29	NaN	2	3.886256 	1
5	3	3	23	4	3	0.3009	1	3.886256 	1
5	3	3	24	3	3	NaN	2	3.886256 	1
5	3	3	25	2	2	1.7775	1	3.886256 	1
5	3	3	26	2	14	1.6826	1	3.886256 	1
5	3	3	27	1	24	NaN	2	3.886256 	1
5	3	3	28	3	5	NaN	2	3.886256 	1
5	3	3	29	1	4	NaN	2	3.886256 	1
5	3	3	30	1	27	NaN	2	3.886256 	1
5	3	3	31	3	4	NaN	2	3.886256 	1
5	3	3	32	1	35	NaN	2	3.886256 	1
5	3	3	33	1	15	NaN	2	3.886256 	1
5	3	3	34	2	33	1.3932	1	3.886256 	1
5	3	3	35	1	12	NaN	2	3.886256 	1
5	3	3	36	2	26	1.5385	1	3.886256 	1
5	3	3	37	1	30	NaN	2	3.886256 	1
5	3	3	38	1	3	NaN	2	3.886256 	1
5	3	3	39	2	15	1.5419	1	3.886256 	1
5	3	3	40	2	5	1.6832	1	3.886256 	1
5	3	3	41	1	13	NaN	2	3.886256 	1
5	3	3	42	3	1	NaN	2	3.886256 	1
5	3	3	43	2	27	1.4390	1	3.886256 	1
5	3	3	44	2	28	1.3449	1	3.886256 	1
5	3	3	45	2	35	1.6524	1	3.886256 	1
5	3	3	46	1	18	NaN	2	3.886256 	1
5	3	3	47	2	24	1.2981	1	3.886256 	1
5	3	3	48	2	6	1.5576	1	3.886256 	1
5	3	3	49	2	21	1.6808	1	3.886256 	1
5	3	3	50	1	2	NaN	2	3.886256 	1
5	3	3	51	2	30	1.6212	1	3.886256 	1
5	3	3	52	1	32	NaN	2	3.886256 	1
5	3	3	53	2	9	1.2209	1	3.886256 	1
5	3	3	54	2	17	2.0109	1	3.886256 	1
5	3	3	55	2	8	1.5068	1	3.886256 	1
5	3	3	56	2	18	1.6903	1	3.886256 	1
5	3	3	57	2	3	1.6539	1	3.886256 	1
5	3	3	58	2	7	1.4546	1	3.886256 	1
5	3	3	59	1	17	NaN	2	3.886256 	1
5	3	3	60	2	22	1.5399	1	3.886256 	1
5	3	3	61	2	29	1.2815	1	3.886256 	1
5	3	3	62	2	25	1.4796	1	3.886256 	1
5	3	3	63	1	10	NaN	2	3.886256 	1
5	3	3	64	1	9	NaN	2	3.886256 	1
5	3	3	65	1	8	NaN	2	3.886256 	1
5	3	3	66	1	33	NaN	2	3.886256 	1
5	3	3	67	1	6	NaN	2	3.886256 	1
5	3	3	68	2	16	1.4268	1	3.886256 	1
5	3	3	69	2	19	1.5378	1	3.886256 	1
5	3	3	70	1	21	NaN	2	3.886256 	1
5	3	3	71	1	25	NaN	2	3.886256 	1
5	3	3	72	2	13	1.6987	1	3.886256 	1
5	3	3	73	4	4	0.3256	1	3.886256 	1
5	3	3	74	1	5	NaN	2	3.886256 	1
5	3	3	75	1	1	7.8383	-1	3.886256 	0
5	3	3	76	1	34	NaN	2	3.886256 	1
5	3	3	77	1	7	NaN	2	3.886256 	1
5	3	3	78	2	4	0.9829	1	3.886256 	1
5	3	3	79	2	31	1.3591	1	3.886256 	1
5	3	3	80	2	34	1.5618	1	3.886256 	1
5	4	6	1	2	22	4.5788	1	3.522954 	1
5	4	6	2	1	21	NaN	2	3.522954 	1
5	4	6	3	2	24	3.3589	1	3.522954 	1
5	4	6	4	1	19	NaN	2	3.522954 	1
5	4	6	5	1	35	NaN	2	3.522954 	1
5	4	6	6	3	4	NaN	2	3.522954 	1
5	4	6	7	2	9	2.6835	1	3.522954 	1
5	4	6	8	1	3	NaN	2	3.522954 	1
5	4	6	9	2	34	3.0054	1	3.522954 	1
5	4	6	10	2	35	3.1333	1	3.522954 	1
5	4	6	11	2	29	3.2934	1	3.522954 	1
5	4	6	12	3	2	NaN	2	3.522954 	1
5	4	6	13	2	3	2.5239	1	3.522954 	1
5	4	6	14	2	30	4.6160	1	3.522954 	1
5	4	6	15	4	1	0.2955	1	3.522954 	1
5	4	6	16	2	14	2.8533	1	3.522954 	1
5	4	6	17	1	11	NaN	2	3.522954 	1
5	4	6	18	2	21	2.9245	1	3.522954 	1
5	4	6	19	1	27	NaN	2	3.522954 	1
5	4	6	20	1	30	NaN	2	3.522954 	1
5	4	6	21	2	12	3.0845	1	3.522954 	1
5	4	6	22	2	18	2.3220	1	3.522954 	1
5	4	6	23	2	25	2.9040	1	3.522954 	1
5	4	6	24	2	8	2.8358	1	3.522954 	1
5	4	6	25	3	1	NaN	2	3.522954 	1
5	4	6	26	2	33	2.5792	1	3.522954 	1
5	4	6	27	2	7	2.7354	1	3.522954 	1
5	4	6	28	2	6	2.5545	1	3.522954 	1
5	4	6	29	2	31	2.9705	1	3.522954 	1
5	4	6	30	1	26	5.3604	-1	3.522954 	0
5	4	6	31	1	8	NaN	2	3.522954 	1
5	4	6	32	2	26	2.2473	1	3.522954 	1
5	4	6	33	2	10	2.8943	1	3.522954 	1
5	4	6	34	1	24	NaN	2	3.522954 	1
5	4	6	35	1	4	6.6429	-1	3.522954 	0
5	4	6	36	1	18	NaN	2	3.522954 	1
5	4	6	37	2	1	2.4866	1	3.522954 	1
5	4	6	38	2	20	3.7508	1	3.522954 	1
5	4	6	39	1	12	NaN	2	3.522954 	1
5	4	6	40	2	17	2.8213	1	3.522954 	1
5	4	6	41	1	7	NaN	2	3.522954 	1
5	4	6	42	1	6	NaN	2	3.522954 	1
5	4	6	43	1	22	NaN	2	3.522954 	1
5	4	6	44	1	29	NaN	2	3.522954 	1
5	4	6	45	3	5	NaN	2	3.522954 	1
5	4	6	46	2	19	2.7824	1	3.522954 	1
5	4	6	47	2	28	4.3257	1	3.522954 	1
5	4	6	48	2	5	2.7015	1	3.522954 	1
5	4	6	49	1	34	NaN	2	3.522954 	1
5	4	6	50	1	1	NaN	2	3.522954 	1
5	4	6	51	2	11	2.8502	1	3.522954 	1
5	4	6	52	1	28	NaN	2	3.522954 	1
5	4	6	53	2	15	3.3566	1	3.522954 	1
5	4	6	54	1	23	NaN	2	3.522954 	1
5	4	6	55	1	20	NaN	2	3.522954 	1
5	4	6	56	1	32	NaN	2	3.522954 	1
5	4	6	57	1	13	NaN	2	3.522954 	1
5	4	6	58	1	17	NaN	2	3.522954 	1
5	4	6	59	4	2	0.4045	1	3.522954 	1
5	4	6	60	1	5	NaN	2	3.522954 	1
5	4	6	61	2	13	3.0703	1	3.522954 	1
5	4	6	62	3	3	NaN	2	3.522954 	1
5	4	6	63	2	2	3.1244	1	3.522954 	1
5	4	6	64	1	25	NaN	2	3.522954 	1
5	4	6	65	1	14	6.9415	-1	3.522954 	0
5	4	6	66	2	16	3.6140	1	3.522954 	1
5	4	6	67	2	4	3.7277	1	3.522954 	1
5	4	6	68	1	2	NaN	2	3.522954 	1
5	4	6	69	4	5	0.2928	1	3.522954 	1
5	4	6	70	1	31	NaN	2	3.522954 	1
5	4	6	71	4	4	0.3086	1	3.522954 	1
5	4	6	72	1	15	NaN	2	3.522954 	1
5	4	6	73	1	33	NaN	2	3.522954 	1
5	4	6	74	1	16	NaN	2	3.522954 	1
5	4	6	75	2	23	3.0368	1	3.522954 	1
5	4	6	76	2	32	3.9034	1	3.522954 	1
5	4	6	77	4	3	0.4169	1	3.522954 	1
5	4	6	78	1	9	NaN	2	3.522954 	1
5	4	6	79	1	10	9.4383	-1	3.522954 	0
5	4	6	80	2	27	3.5964	1	3.522954 	1
5	5	1	1	1	17	NaN	2	3.886256 	1
5	5	1	2	1	35	NaN	2	3.886256 	1
5	5	1	3	2	7	1.0904	1	3.886256 	1
5	5	1	4	2	8	0.8434	1	3.886256 	1
5	5	1	5	1	4	NaN	2	3.886256 	1
5	5	1	6	2	16	0.9346	1	3.886256 	1
5	5	1	7	1	15	NaN	2	3.886256 	1
5	5	1	8	2	13	0.8399	1	3.886256 	1
5	5	1	9	3	4	NaN	2	3.886256 	1
5	5	1	10	1	16	NaN	2	3.886256 	1
5	5	1	11	1	11	NaN	2	3.886256 	1
5	5	1	12	1	2	NaN	2	3.886256 	1
5	5	1	13	3	5	NaN	2	3.886256 	1
5	5	1	14	2	3	0.8848	1	3.886256 	1
5	5	1	15	3	2	NaN	2	3.886256 	1
5	5	1	16	2	34	0.8499	1	3.886256 	1
5	5	1	17	2	4	0.8983	1	3.886256 	1
5	5	1	18	2	25	0.9498	1	3.886256 	1
5	5	1	19	2	29	0.7107	1	3.886256 	1
5	5	1	20	2	35	0.1049	1	3.886256 	1
5	5	1	21	3	3	NaN	2	3.886256 	1
5	5	1	22	2	12	0.8290	1	3.886256 	1
5	5	1	23	1	33	NaN	2	3.886256 	1
5	5	1	24	2	26	0.8755	1	3.886256 	1
5	5	1	25	1	19	NaN	2	3.886256 	1
5	5	1	26	2	17	0.8573	1	3.886256 	1
5	5	1	27	2	15	0.8066	1	3.886256 	1
5	5	1	28	1	3	NaN	2	3.886256 	1
5	5	1	29	2	20	0.9945	1	3.886256 	1
5	5	1	30	1	7	NaN	2	3.886256 	1
5	5	1	31	1	22	NaN	2	3.886256 	1
5	5	1	32	4	3	0.4797	1	3.886256 	1
5	5	1	33	1	27	NaN	2	3.886256 	1
5	5	1	34	2	14	0.7894	1	3.886256 	1
5	5	1	35	2	24	0.7541	1	3.886256 	1
5	5	1	36	2	30	0.8812	1	3.886256 	1
5	5	1	37	2	6	0.7958	1	3.886256 	1
5	5	1	38	1	1	NaN	2	3.886256 	1
5	5	1	39	2	2	0.8264	1	3.886256 	1
5	5	1	40	1	24	NaN	2	3.886256 	1
5	5	1	41	2	21	0.9242	1	3.886256 	1
5	5	1	42	2	11	0.6802	1	3.886256 	1
5	5	1	43	1	5	NaN	2	3.886256 	1
5	5	1	44	1	28	NaN	2	3.886256 	1
5	5	1	45	4	2	0.3670	1	3.886256 	1
5	5	1	46	2	18	0.8688	1	3.886256 	1
5	5	1	47	1	23	NaN	2	3.886256 	1
5	5	1	48	4	1	0.3419	1	3.886256 	1
5	5	1	49	4	5	0.2934	1	3.886256 	1
5	5	1	50	2	28	0.9075	1	3.886256 	1
5	5	1	51	1	13	NaN	2	3.886256 	1
5	5	1	52	1	32	3.4914	-1	3.886256 	0
5	5	1	53	2	1	1.0110	1	3.886256 	1
5	5	1	54	2	33	0.7781	1	3.886256 	1
5	5	1	55	2	22	0.9339	1	3.886256 	1
5	5	1	56	2	27	1.0211	1	3.886256 	1
5	5	1	57	1	12	NaN	2	3.886256 	1
5	5	1	58	2	9	0.9805	1	3.886256 	1
5	5	1	59	1	30	NaN	2	3.886256 	1
5	5	1	60	1	31	NaN	2	3.886256 	1
5	5	1	61	1	20	NaN	2	3.886256 	1
5	5	1	62	2	32	0.8411	1	3.886256 	1
5	5	1	63	2	10	0.7234	1	3.886256 	1
5	5	1	64	4	4	0.3701	1	3.886256 	1
5	5	1	65	1	14	NaN	2	3.886256 	1
5	5	1	66	2	23	0.8305	1	3.886256 	1
5	5	1	67	1	29	NaN	2	3.886256 	1
5	5	1	68	2	19	0.7728	1	3.886256 	1
5	5	1	69	2	5	0.8865	1	3.886256 	1
5	5	1	70	1	6	NaN	2	3.886256 	1
5	5	1	71	1	10	3.2787	-1	3.886256 	0
5	5	1	72	2	31	0.9150	1	3.886256 	1
5	5	1	73	1	25	NaN	2	3.886256 	1
5	5	1	74	1	26	NaN	2	3.886256 	1
5	5	1	75	1	8	NaN	2	3.886256 	1
5	5	1	76	1	9	NaN	2	3.886256 	1
5	5	1	77	1	18	NaN	2	3.886256 	1
5	5	1	78	3	1	NaN	2	3.886256 	1
5	5	1	79	1	21	NaN	2	3.886256 	1
5	5	1	80	1	34	NaN	2	3.886256 	1
5	6	4	1	4	4	0.3143	1	4.201367 	1
5	6	4	2	2	3	1.0612	1	4.201367 	1
5	6	4	3	1	16	NaN	2	4.201367 	1
5	6	4	4	3	5	NaN	2	4.201367 	1
5	6	4	5	1	13	NaN	2	4.201367 	1
5	6	4	6	1	14	NaN	2	4.201367 	1
5	6	4	7	2	6	1.1036	1	4.201367 	1
5	6	4	8	1	18	NaN	2	4.201367 	1
5	6	4	9	1	12	NaN	2	4.201367 	1
5	6	4	10	2	15	1.0985	1	4.201367 	1
5	6	4	11	2	10	1.2699	1	4.201367 	1
5	6	4	12	1	28	NaN	2	4.201367 	1
5	6	4	13	2	35	1.2638	1	4.201367 	1
5	6	4	14	1	21	NaN	2	4.201367 	1
5	6	4	15	2	13	1.2704	1	4.201367 	1
5	6	4	16	1	27	NaN	2	4.201367 	1
5	6	4	17	1	23	NaN	2	4.201367 	1
5	6	4	18	1	1	NaN	2	4.201367 	1
5	6	4	19	3	2	NaN	2	4.201367 	1
5	6	4	20	1	29	NaN	2	4.201367 	1
5	6	4	21	4	2	0.3922	1	4.201367 	1
5	6	4	22	1	17	NaN	2	4.201367 	1
5	6	4	23	1	10	NaN	2	4.201367 	1
5	6	4	24	2	16	1.1354	1	4.201367 	1
5	6	4	25	4	1	0.3509	1	4.201367 	1
5	6	4	26	1	5	NaN	2	4.201367 	1
5	6	4	27	2	22	1.1795	1	4.201367 	1
5	6	4	28	1	6	NaN	2	4.201367 	1
5	6	4	29	2	7	1.2234	1	4.201367 	1
5	6	4	30	2	18	1.1413	1	4.201367 	1
5	6	4	31	4	3	0.3260	1	4.201367 	1
5	6	4	32	2	17	1.1301	1	4.201367 	1
5	6	4	33	2	9	1.2450	1	4.201367 	1
5	6	4	34	1	19	NaN	2	4.201367 	1
5	6	4	35	2	19	1.2265	1	4.201367 	1
5	6	4	36	2	11	1.1318	1	4.201367 	1
5	6	4	37	1	9	NaN	2	4.201367 	1
5	6	4	38	1	35	NaN	2	4.201367 	1
5	6	4	39	2	29	1.0843	1	4.201367 	1
5	6	4	40	1	22	NaN	2	4.201367 	1
5	6	4	41	2	27	1.3064	1	4.201367 	1
5	6	4	42	2	24	1.2173	1	4.201367 	1
5	6	4	43	1	32	NaN	2	4.201367 	1
5	6	4	44	1	26	NaN	2	4.201367 	1
5	6	4	45	2	33	1.0553	1	4.201367 	1
5	6	4	46	2	2	1.2747	1	4.201367 	1
5	6	4	47	2	30	1.1148	1	4.201367 	1
5	6	4	48	1	15	NaN	2	4.201367 	1
5	6	4	49	1	7	NaN	2	4.201367 	1
5	6	4	50	2	23	0.9369	1	4.201367 	1
5	6	4	51	1	11	NaN	2	4.201367 	1
5	6	4	52	2	34	1.0519	1	4.201367 	1
5	6	4	53	1	25	NaN	2	4.201367 	1
5	6	4	54	2	8	1.1177	1	4.201367 	1
5	6	4	55	2	32	1.0654	1	4.201367 	1
5	6	4	56	2	26	1.1891	1	4.201367 	1
5	6	4	57	1	20	NaN	2	4.201367 	1
5	6	4	58	1	3	NaN	2	4.201367 	1
5	6	4	59	1	4	NaN	2	4.201367 	1
5	6	4	60	3	3	NaN	2	4.201367 	1
5	6	4	61	2	21	1.0874	1	4.201367 	1
5	6	4	62	2	28	1.0545	1	4.201367 	1
5	6	4	63	2	31	1.0222	1	4.201367 	1
5	6	4	64	2	1	1.1351	1	4.201367 	1
5	6	4	65	1	24	3.5498	-1	4.201367 	0
5	6	4	66	3	4	NaN	2	4.201367 	1
5	6	4	67	2	25	1.1161	1	4.201367 	1
5	6	4	68	1	2	NaN	2	4.201367 	1
5	6	4	69	1	31	NaN	2	4.201367 	1
5	6	4	70	1	30	NaN	2	4.201367 	1
5	6	4	71	3	1	NaN	2	4.201367 	1
5	6	4	72	1	33	NaN	2	4.201367 	1
5	6	4	73	2	20	1.0496	1	4.201367 	1
5	6	4	74	1	34	NaN	2	4.201367 	1
5	6	4	75	4	5	0.4235	1	4.201367 	1
5	6	4	76	2	14	1.0950	1	4.201367 	1
5	6	4	77	2	12	0.9280	1	4.201367 	1
5	6	4	78	2	4	1.4021	1	4.201367 	1
5	6	4	79	2	5	0.9026	1	4.201367 	1
5	6	4	80	1	8	NaN	2	4.201367 	1
6	1	3	1	2	16	1.7119	1	3.175992 	1
6	1	3	2	2	2	1.5525	1	3.175992 	1
6	1	3	3	2	25	1.6717	1	3.175992 	1
6	1	3	4	3	5	NaN	2	3.175992 	1
6	1	3	5	2	6	1.9580	1	3.175992 	1
6	1	3	6	3	1	NaN	2	3.175992 	1
6	1	3	7	1	20	NaN	2	3.175992 	1
6	1	3	8	4	3	0.4336	1	3.175992 	1
6	1	3	9	1	34	NaN	2	3.175992 	1
6	1	3	10	1	1	NaN	2	3.175992 	1
6	1	3	11	2	10	2.0107	1	3.175992 	1
6	1	3	12	2	5	1.5589	1	3.175992 	1
6	1	3	13	2	17	2.3310	1	3.175992 	1
6	1	3	14	2	31	0.0925	1	3.175992 	1
6	1	3	15	1	17	NaN	2	3.175992 	1
6	1	3	16	2	33	1.5263	1	3.175992 	1
6	1	3	17	1	5	6.0729	-1	3.175992 	0
6	1	3	18	1	21	NaN	2	3.175992 	1
6	1	3	19	4	4	0.4338	1	3.175992 	1
6	1	3	20	1	22	NaN	2	3.175992 	1
6	1	3	21	2	29	1.8038	1	3.175992 	1
6	1	3	22	1	29	8.2775	-1	3.175992 	0
6	1	3	23	2	18	1.3413	1	3.175992 	1
6	1	3	24	3	3	NaN	2	3.175992 	1
6	1	3	25	1	16	NaN	2	3.175992 	1
6	1	3	26	1	4	5.8349	-1	3.175992 	0
6	1	3	27	1	33	NaN	2	3.175992 	1
6	1	3	28	2	12	1.7835	1	3.175992 	1
6	1	3	29	1	9	NaN	2	3.175992 	1
6	1	3	30	1	19	NaN	2	3.175992 	1
6	1	3	31	1	6	NaN	2	3.175992 	1
6	1	3	32	2	9	0.2429	1	3.175992 	1
6	1	3	33	2	15	1.9477	1	3.175992 	1
6	1	3	34	2	24	2.4755	1	3.175992 	1
6	1	3	35	4	2	0.4144	1	3.175992 	1
6	1	3	36	2	23	1.8530	1	3.175992 	1
6	1	3	37	1	8	NaN	2	3.175992 	1
6	1	3	38	1	24	NaN	2	3.175992 	1
6	1	3	39	2	35	1.7402	1	3.175992 	1
6	1	3	40	1	10	7.6869	-1	3.175992 	0
6	1	3	41	2	32	1.1776	1	3.175992 	1
6	1	3	42	2	21	1.6482	1	3.175992 	1
6	1	3	43	4	1	0.2990	1	3.175992 	1
6	1	3	44	2	14	2.1792	1	3.175992 	1
6	1	3	45	2	27	1.6776	1	3.175992 	1
6	1	3	46	1	13	NaN	2	3.175992 	1
6	1	3	47	2	28	1.8475	1	3.175992 	1
6	1	3	48	2	1	1.7670	1	3.175992 	1
6	1	3	49	2	13	1.9286	1	3.175992 	1
6	1	3	50	3	2	NaN	2	3.175992 	1
6	1	3	51	1	30	NaN	2	3.175992 	1
6	1	3	52	2	34	1.3984	1	3.175992 	1
6	1	3	53	2	30	1.6887	1	3.175992 	1
6	1	3	54	3	4	NaN	2	3.175992 	1
6	1	3	55	1	31	NaN	2	3.175992 	1
6	1	3	56	1	2	8.9005	-1	3.175992 	0
6	1	3	57	2	20	1.2831	1	3.175992 	1
6	1	3	58	1	35	NaN	2	3.175992 	1
6	1	3	59	2	11	1.0655	1	3.175992 	1
6	1	3	60	2	19	2.2268	1	3.175992 	1
6	1	3	61	1	28	NaN	2	3.175992 	1
6	1	3	62	2	8	1.1509	1	3.175992 	1
6	1	3	63	2	26	1.6726	1	3.175992 	1
6	1	3	64	1	14	7.9287	-1	3.175992 	0
6	1	3	65	2	7	1.3010	1	3.175992 	1
6	1	3	66	2	4	2.1614	1	3.175992 	1
6	1	3	67	1	27	NaN	2	3.175992 	1
6	1	3	68	1	32	NaN	2	3.175992 	1
6	1	3	69	1	11	NaN	2	3.175992 	1
6	1	3	70	1	23	NaN	2	3.175992 	1
6	1	3	71	1	15	NaN	2	3.175992 	1
6	1	3	72	1	18	7.8928	-1	3.175992 	0
6	1	3	73	1	26	NaN	2	3.175992 	1
6	1	3	74	4	5	0.4794	1	3.175992 	1
6	1	3	75	2	22	1.7337	1	3.175992 	1
6	1	3	76	1	12	NaN	2	3.175992 	1
6	1	3	77	1	25	NaN	2	3.175992 	1
6	1	3	78	2	3	1.9534	1	3.175992 	1
6	1	3	79	1	7	NaN	2	3.175992 	1
6	1	3	80	1	3	NaN	2	3.175992 	1
6	2	6	1	3	5	NaN	2	1.869179 	1
6	2	6	2	1	11	NaN	2	1.869179 	1
6	2	6	3	2	25	3.5219	1	1.869179 	1
6	2	6	4	2	3	NaN	0	1.869179 	0
6	2	6	5	1	24	10.8643	-1	1.869179 	0
6	2	6	6	1	31	NaN	2	1.869179 	1
6	2	6	7	3	1	NaN	2	1.869179 	1
6	2	6	8	2	7	NaN	0	1.869179 	0
6	2	6	9	2	6	2.1214	1	1.869179 	1
6	2	6	10	1	1	8.4454	-1	1.869179 	0
6	2	6	11	1	19	NaN	2	1.869179 	1
6	2	6	12	2	26	2.8921	1	1.869179 	1
6	2	6	13	1	30	NaN	2	1.869179 	1
6	2	6	14	1	25	8.6769	-1	1.869179 	0
6	2	6	15	4	2	0.5277	1	1.869179 	1
6	2	6	16	1	13	NaN	2	1.869179 	1
6	2	6	17	2	5	3.5840	1	1.869179 	1
6	2	6	18	1	32	NaN	2	1.869179 	1
6	2	6	19	1	21	NaN	2	1.869179 	1
6	2	6	20	2	33	3.9288	1	1.869179 	1
6	2	6	21	1	7	NaN	2	1.869179 	1
6	2	6	22	2	18	4.3189	1	1.869179 	1
6	2	6	23	1	3	NaN	2	1.869179 	1
6	2	6	24	2	29	3.0268	1	1.869179 	1
6	2	6	25	2	12	4.8180	1	1.869179 	1
6	2	6	26	1	23	NaN	2	1.869179 	1
6	2	6	27	4	1	0.3570	1	1.869179 	1
6	2	6	28	1	18	NaN	2	1.869179 	1
6	2	6	29	3	3	NaN	2	1.869179 	1
6	2	6	30	2	35	4.2519	1	1.869179 	1
6	2	6	31	2	1	4.4411	1	1.869179 	1
6	2	6	32	1	2	NaN	2	1.869179 	1
6	2	6	33	1	12	NaN	2	1.869179 	1
6	2	6	34	1	5	NaN	2	1.869179 	1
6	2	6	35	2	31	NaN	0	1.869179 	0
6	2	6	36	1	9	NaN	2	1.869179 	1
6	2	6	37	1	27	NaN	2	1.869179 	1
6	2	6	38	2	21	4.0638	1	1.869179 	1
6	2	6	39	4	3	0.4290	1	1.869179 	1
6	2	6	40	1	16	NaN	2	1.869179 	1
6	2	6	41	1	14	NaN	2	1.869179 	1
6	2	6	42	1	22	NaN	2	1.869179 	1
6	2	6	43	2	28	NaN	0	1.869179 	0
6	2	6	44	2	24	3.9090	1	1.869179 	1
6	2	6	45	2	23	3.0012	1	1.869179 	1
6	2	6	46	2	34	3.2834	1	1.869179 	1
6	2	6	47	2	15	3.4277	1	1.869179 	1
6	2	6	48	1	4	10.1372	-1	1.869179 	0
6	2	6	49	2	4	4.5970	1	1.869179 	1
6	2	6	50	1	34	NaN	2	1.869179 	1
6	2	6	51	4	4	0.8217	1	1.869179 	1
6	2	6	52	1	6	NaN	2	1.869179 	1
6	2	6	53	2	27	3.1917	1	1.869179 	1
6	2	6	54	2	16	3.3543	1	1.869179 	1
6	2	6	55	1	26	7.7738	-1	1.869179 	0
6	2	6	56	2	14	NaN	0	1.869179 	0
6	2	6	57	1	35	10.6049	-1	1.869179 	0
6	2	6	58	2	20	NaN	0	1.869179 	0
6	2	6	59	1	28	NaN	2	1.869179 	1
6	2	6	60	2	32	NaN	0	1.869179 	0
6	2	6	61	1	8	7.3306	-1	1.869179 	0
6	2	6	62	2	22	3.2863	1	1.869179 	1
6	2	6	63	2	19	4.0736	1	1.869179 	1
6	2	6	64	2	2	2.8578	1	1.869179 	1
6	2	6	65	1	10	NaN	2	1.869179 	1
6	2	6	66	2	30	3.9104	1	1.869179 	1
6	2	6	67	1	17	NaN	2	1.869179 	1
6	2	6	68	1	29	NaN	2	1.869179 	1
6	2	6	69	2	11	3.8562	1	1.869179 	1
6	2	6	70	2	17	4.3369	1	1.869179 	1
6	2	6	71	2	10	3.2225	1	1.869179 	1
6	2	6	72	4	5	0.2379	1	1.869179 	1
6	2	6	73	3	2	NaN	2	1.869179 	1
6	2	6	74	3	4	NaN	2	1.869179 	1
6	2	6	75	2	8	2.3320	1	1.869179 	1
6	2	6	76	1	33	NaN	2	1.869179 	1
6	2	6	77	2	9	3.8750	1	1.869179 	1
6	2	6	78	1	15	NaN	2	1.869179 	1
6	2	6	79	1	20	NaN	2	1.869179 	1
6	2	6	80	2	13	4.8961	1	1.869179 	1
6	3	1	1	1	11	NaN	2	3.680934 	1
6	3	1	2	2	30	1.2847	1	3.680934 	1
6	3	1	3	2	11	0.9848	1	3.680934 	1
6	3	1	4	2	19	0.9549	1	3.680934 	1
6	3	1	5	2	28	0.9064	1	3.680934 	1
6	3	1	6	1	28	3.3727	-1	3.680934 	0
6	3	1	7	4	4	0.5203	1	3.680934 	1
6	3	1	8	2	20	0.8209	1	3.680934 	1
6	3	1	9	1	12	NaN	2	3.680934 	1
6	3	1	10	1	1	NaN	2	3.680934 	1
6	3	1	11	2	7	0.9439	1	3.680934 	1
6	3	1	12	1	5	NaN	2	3.680934 	1
6	3	1	13	1	18	NaN	2	3.680934 	1
6	3	1	14	1	15	NaN	2	3.680934 	1
6	3	1	15	4	2	0.3617	1	3.680934 	1
6	3	1	16	1	19	NaN	2	3.680934 	1
6	3	1	17	2	8	0.8672	1	3.680934 	1
6	3	1	18	4	5	0.2969	1	3.680934 	1
6	3	1	19	1	9	NaN	2	3.680934 	1
6	3	1	20	1	10	NaN	2	3.680934 	1
6	3	1	21	3	5	NaN	2	3.680934 	1
6	3	1	22	1	33	NaN	2	3.680934 	1
6	3	1	23	4	1	0.3821	1	3.680934 	1
6	3	1	24	3	3	NaN	2	3.680934 	1
6	3	1	25	2	13	0.9063	1	3.680934 	1
6	3	1	26	2	17	0.8360	1	3.680934 	1
6	3	1	27	1	21	NaN	2	3.680934 	1
6	3	1	28	3	4	NaN	2	3.680934 	1
6	3	1	29	1	16	NaN	2	3.680934 	1
6	3	1	30	1	8	NaN	2	3.680934 	1
6	3	1	31	3	2	0.5638	-1	3.680934 	0
6	3	1	32	1	24	NaN	2	3.680934 	1
6	3	1	33	1	3	NaN	2	3.680934 	1
6	3	1	34	2	33	1.0625	1	3.680934 	1
6	3	1	35	1	20	NaN	2	3.680934 	1
6	3	1	36	2	10	0.9317	1	3.680934 	1
6	3	1	37	1	34	NaN	2	3.680934 	1
6	3	1	38	1	7	NaN	2	3.680934 	1
6	3	1	39	2	27	0.9661	1	3.680934 	1
6	3	1	40	2	4	0.9235	1	3.680934 	1
6	3	1	41	1	17	NaN	2	3.680934 	1
6	3	1	42	3	1	NaN	2	3.680934 	1
6	3	1	43	2	14	1.1287	1	3.680934 	1
6	3	1	44	2	22	0.8713	1	3.680934 	1
6	3	1	45	2	5	1.0146	1	3.680934 	1
6	3	1	46	1	31	NaN	2	3.680934 	1
6	3	1	47	2	21	0.9211	1	3.680934 	1
6	3	1	48	2	1	0.7319	1	3.680934 	1
6	3	1	49	2	2	0.9700	1	3.680934 	1
6	3	1	50	1	14	NaN	2	3.680934 	1
6	3	1	51	2	15	0.8854	1	3.680934 	1
6	3	1	52	1	22	NaN	2	3.680934 	1
6	3	1	53	2	35	0.9809	1	3.680934 	1
6	3	1	54	2	16	1.0279	1	3.680934 	1
6	3	1	55	2	9	0.7172	1	3.680934 	1
6	3	1	56	2	25	0.8620	1	3.680934 	1
6	3	1	57	2	6	0.9410	1	3.680934 	1
6	3	1	58	2	26	0.8193	1	3.680934 	1
6	3	1	59	1	25	2.8269	-1	3.680934 	0
6	3	1	60	2	18	1.0493	1	3.680934 	1
6	3	1	61	2	3	0.7693	1	3.680934 	1
6	3	1	62	2	34	0.8546	1	3.680934 	1
6	3	1	63	1	35	NaN	2	3.680934 	1
6	3	1	64	1	6	NaN	2	3.680934 	1
6	3	1	65	1	4	NaN	2	3.680934 	1
6	3	1	66	1	23	NaN	2	3.680934 	1
6	3	1	67	1	2	NaN	2	3.680934 	1
6	3	1	68	2	32	1.1250	1	3.680934 	1
6	3	1	69	2	29	1.1558	1	3.680934 	1
6	3	1	70	1	29	NaN	2	3.680934 	1
6	3	1	71	1	32	NaN	2	3.680934 	1
6	3	1	72	2	31	0.7723	1	3.680934 	1
6	3	1	73	4	3	0.4126	1	3.680934 	1
6	3	1	74	1	30	NaN	2	3.680934 	1
6	3	1	75	1	26	NaN	2	3.680934 	1
6	3	1	76	1	13	NaN	2	3.680934 	1
6	3	1	77	1	27	NaN	2	3.680934 	1
6	3	1	78	2	24	0.9974	1	3.680934 	1
6	3	1	79	2	12	0.8959	1	3.680934 	1
6	3	1	80	2	23	0.8069	1	3.680934 	1
6	4	4	1	2	19	1.1809	1	3.522954 	1
6	4	4	2	1	27	2.9596	-1	3.522954 	0
6	4	4	3	2	30	1.3031	1	3.522954 	1
6	4	4	4	1	8	NaN	2	3.522954 	1
6	4	4	5	1	18	NaN	2	3.522954 	1
6	4	4	6	3	3	NaN	2	3.522954 	1
6	4	4	7	2	10	1.6173	1	3.522954 	1
6	4	4	8	1	23	NaN	2	3.522954 	1
6	4	4	9	2	35	1.5332	1	3.522954 	1
6	4	4	10	2	9	1.2364	1	3.522954 	1
6	4	4	11	2	12	1.7616	1	3.522954 	1
6	4	4	12	3	1	NaN	2	3.522954 	1
6	4	4	13	2	8	1.4100	1	3.522954 	1
6	4	4	14	2	11	1.3099	1	3.522954 	1
6	4	4	15	4	5	0.3801	1	3.522954 	1
6	4	4	16	2	21	1.3194	1	3.522954 	1
6	4	4	17	1	2	3.7873	-1	3.522954 	0
6	4	4	18	2	5	1.8675	1	3.522954 	1
6	4	4	19	1	25	NaN	2	3.522954 	1
6	4	4	20	1	11	NaN	2	3.522954 	1
6	4	4	21	2	33	1.5868	1	3.522954 	1
6	4	4	22	2	31	1.4527	1	3.522954 	1
6	4	4	23	2	26	1.3880	1	3.522954 	1
6	4	4	24	2	17	1.0862	1	3.522954 	1
6	4	4	25	3	5	NaN	2	3.522954 	1
6	4	4	26	2	32	1.4945	1	3.522954 	1
6	4	4	27	2	15	1.3512	1	3.522954 	1
6	4	4	28	2	4	1.5196	1	3.522954 	1
6	4	4	29	2	27	1.0345	1	3.522954 	1
6	4	4	30	1	9	NaN	2	3.522954 	1
6	4	4	31	1	14	NaN	2	3.522954 	1
6	4	4	32	2	6	1.3392	1	3.522954 	1
6	4	4	33	2	29	1.3917	1	3.522954 	1
6	4	4	34	1	1	NaN	2	3.522954 	1
6	4	4	35	1	6	NaN	2	3.522954 	1
6	4	4	36	1	7	NaN	2	3.522954 	1
6	4	4	37	2	24	1.6078	1	3.522954 	1
6	4	4	38	2	3	1.6107	1	3.522954 	1
6	4	4	39	1	24	NaN	2	3.522954 	1
6	4	4	40	2	25	0.9548	1	3.522954 	1
6	4	4	41	1	17	NaN	2	3.522954 	1
6	4	4	42	1	3	4.3644	-1	3.522954 	0
6	4	4	43	1	19	NaN	2	3.522954 	1
6	4	4	44	1	21	NaN	2	3.522954 	1
6	4	4	45	3	2	NaN	2	3.522954 	1
6	4	4	46	2	22	1.3294	1	3.522954 	1
6	4	4	47	2	7	1.7427	1	3.522954 	1
6	4	4	48	2	14	1.1818	1	3.522954 	1
6	4	4	49	1	30	2.7481	-1	3.522954 	0
6	4	4	50	1	20	NaN	2	3.522954 	1
6	4	4	51	2	1	1.2408	1	3.522954 	1
6	4	4	52	1	4	NaN	2	3.522954 	1
6	4	4	53	2	13	1.1816	1	3.522954 	1
6	4	4	54	1	22	NaN	2	3.522954 	1
6	4	4	55	1	15	NaN	2	3.522954 	1
6	4	4	56	1	28	NaN	2	3.522954 	1
6	4	4	57	1	13	NaN	2	3.522954 	1
6	4	4	58	1	5	NaN	2	3.522954 	1
6	4	4	59	4	2	0.3964	1	3.522954 	1
6	4	4	60	1	31	NaN	2	3.522954 	1
6	4	4	61	2	16	1.4264	1	3.522954 	1
6	4	4	62	3	4	NaN	2	3.522954 	1
6	4	4	63	2	34	1.5243	1	3.522954 	1
6	4	4	64	1	32	NaN	2	3.522954 	1
6	4	4	65	1	10	NaN	2	3.522954 	1
6	4	4	66	2	23	1.6638	1	3.522954 	1
6	4	4	67	2	2	1.3300	1	3.522954 	1
6	4	4	68	1	35	NaN	2	3.522954 	1
6	4	4	69	4	4	0.4317	1	3.522954 	1
6	4	4	70	1	33	NaN	2	3.522954 	1
6	4	4	71	4	3	0.3735	1	3.522954 	1
6	4	4	72	1	34	NaN	2	3.522954 	1
6	4	4	73	1	29	NaN	2	3.522954 	1
6	4	4	74	1	16	NaN	2	3.522954 	1
6	4	4	75	2	18	1.6330	1	3.522954 	1
6	4	4	76	2	20	1.3879	1	3.522954 	1
6	4	4	77	4	1	0.4059	1	3.522954 	1
6	4	4	78	1	26	NaN	2	3.522954 	1
6	4	4	79	1	12	NaN	2	3.522954 	1
6	4	4	80	2	28	1.5323	1	3.522954 	1
6	5	2	1	1	27	NaN	2	3.522954 	1
6	5	2	2	1	34	5.8083	-1	3.522954 	0
6	5	2	3	2	14	0.8979	1	3.522954 	1
6	5	2	4	2	20	1.4518	1	3.522954 	1
6	5	2	5	1	1	NaN	2	3.522954 	1
6	5	2	6	2	9	1.1129	1	3.522954 	1
6	5	2	7	1	16	NaN	2	3.522954 	1
6	5	2	8	2	16	1.4017	1	3.522954 	1
6	5	2	9	3	5	NaN	2	3.522954 	1
6	5	2	10	1	30	NaN	2	3.522954 	1
6	5	2	11	1	35	NaN	2	3.522954 	1
6	5	2	12	1	12	NaN	2	3.522954 	1
6	5	2	13	3	4	NaN	2	3.522954 	1
6	5	2	14	2	7	1.4977	1	3.522954 	1
6	5	2	15	3	3	NaN	2	3.522954 	1
6	5	2	16	2	8	1.3103	1	3.522954 	1
6	5	2	17	2	5	1.2769	1	3.522954 	1
6	5	2	18	2	4	0.9356	1	3.522954 	1
6	5	2	19	2	18	1.2849	1	3.522954 	1
6	5	2	20	2	13	1.5886	1	3.522954 	1
6	5	2	21	3	1	NaN	2	3.522954 	1
6	5	2	22	2	33	1.7296	1	3.522954 	1
6	5	2	23	1	17	NaN	2	3.522954 	1
6	5	2	24	2	6	1.6262	1	3.522954 	1
6	5	2	25	1	23	NaN	2	3.522954 	1
6	5	2	26	2	34	1.2543	1	3.522954 	1
6	5	2	27	2	11	1.2902	1	3.522954 	1
6	5	2	28	1	11	NaN	2	3.522954 	1
6	5	2	29	2	24	1.0018	1	3.522954 	1
6	5	2	30	1	28	5.8931	-1	3.522954 	0
6	5	2	31	1	10	NaN	2	3.522954 	1
6	5	2	32	4	1	0.4500	1	3.522954 	1
6	5	2	33	1	3	NaN	2	3.522954 	1
6	5	2	34	2	2	1.5043	1	3.522954 	1
6	5	2	35	2	23	1.3656	1	3.522954 	1
6	5	2	36	2	21	1.6633	1	3.522954 	1
6	5	2	37	2	19	1.3616	1	3.522954 	1
6	5	2	38	1	25	NaN	2	3.522954 	1
6	5	2	39	2	3	1.5688	1	3.522954 	1
6	5	2	40	1	21	NaN	2	3.522954 	1
6	5	2	41	2	10	1.5195	1	3.522954 	1
6	5	2	42	2	27	1.1967	1	3.522954 	1
6	5	2	43	1	4	NaN	2	3.522954 	1
6	5	2	44	1	9	NaN	2	3.522954 	1
6	5	2	45	4	4	0.3684	1	3.522954 	1
6	5	2	46	2	35	1.4954	1	3.522954 	1
6	5	2	47	1	26	NaN	2	3.522954 	1
6	5	2	48	4	5	0.3566	1	3.522954 	1
6	5	2	49	4	3	0.3427	1	3.522954 	1
6	5	2	50	2	25	1.1954	1	3.522954 	1
6	5	2	51	1	13	NaN	2	3.522954 	1
6	5	2	52	1	15	NaN	2	3.522954 	1
6	5	2	53	2	12	1.2241	1	3.522954 	1
6	5	2	54	2	22	1.4106	1	3.522954 	1
6	5	2	55	2	28	1.3653	1	3.522954 	1
6	5	2	56	2	17	1.3724	1	3.522954 	1
6	5	2	57	1	22	NaN	2	3.522954 	1
6	5	2	58	2	32	1.4036	1	3.522954 	1
6	5	2	59	1	33	NaN	2	3.522954 	1
6	5	2	60	1	14	NaN	2	3.522954 	1
6	5	2	61	1	29	NaN	2	3.522954 	1
6	5	2	62	2	15	1.2140	1	3.522954 	1
6	5	2	63	2	26	1.6269	1	3.522954 	1
6	5	2	64	4	2	0.3587	1	3.522954 	1
6	5	2	65	1	5	NaN	2	3.522954 	1
6	5	2	66	2	29	1.5524	1	3.522954 	1
6	5	2	67	1	2	NaN	2	3.522954 	1
6	5	2	68	2	30	1.1686	1	3.522954 	1
6	5	2	69	2	31	1.5276	1	3.522954 	1
6	5	2	70	1	20	5.6987	-1	3.522954 	0
6	5	2	71	1	24	NaN	2	3.522954 	1
6	5	2	72	2	1	1.3014	1	3.522954 	1
6	5	2	73	1	19	NaN	2	3.522954 	1
6	5	2	74	1	18	NaN	2	3.522954 	1
6	5	2	75	1	6	NaN	2	3.522954 	1
6	5	2	76	1	7	NaN	2	3.522954 	1
6	5	2	77	1	32	NaN	2	3.522954 	1
6	5	2	78	3	2	NaN	2	3.522954 	1
6	5	2	79	1	31	NaN	2	3.522954 	1
6	5	2	80	1	8	4.4801	-1	3.522954 	0
6	6	5	1	4	3	0.3880	1	3.604818 	1
6	6	5	2	2	21	2.1775	1	3.604818 	1
6	6	5	3	1	15	NaN	2	3.604818 	1
6	6	5	4	3	1	NaN	2	3.604818 	1
6	6	5	5	1	34	NaN	2	3.604818 	1
6	6	5	6	1	23	NaN	2	3.604818 	1
6	6	5	7	2	13	2.2970	1	3.604818 	1
6	6	5	8	1	2	NaN	2	3.604818 	1
6	6	5	9	1	24	NaN	2	3.604818 	1
6	6	5	10	2	8	1.7826	1	3.604818 	1
6	6	5	11	2	33	2.4506	1	3.604818 	1
6	6	5	12	1	31	NaN	2	3.604818 	1
6	6	5	13	2	1	1.9942	1	3.604818 	1
6	6	5	14	1	26	NaN	2	3.604818 	1
6	6	5	15	2	28	NaN	0	3.604818 	0
6	6	5	16	1	3	NaN	2	3.604818 	1
6	6	5	17	1	18	NaN	2	3.604818 	1
6	6	5	18	1	8	NaN	2	3.604818 	1
6	6	5	19	3	2	NaN	2	3.604818 	1
6	6	5	20	1	6	NaN	2	3.604818 	1
6	6	5	21	4	4	0.3617	1	3.604818 	1
6	6	5	22	1	13	NaN	2	3.604818 	1
6	6	5	23	1	33	NaN	2	3.604818 	1
6	6	5	24	2	23	1.7239	1	3.604818 	1
6	6	5	25	4	2	0.3990	1	3.604818 	1
6	6	5	26	1	19	NaN	2	3.604818 	1
6	6	5	27	2	32	2.1235	1	3.604818 	1
6	6	5	28	1	28	NaN	2	3.604818 	1
6	6	5	29	2	26	2.7870	1	3.604818 	1
6	6	5	30	2	17	2.5547	1	3.604818 	1
6	6	5	31	4	1	0.3355	1	3.604818 	1
6	6	5	32	2	24	2.5505	1	3.604818 	1
6	6	5	33	2	34	2.5264	1	3.604818 	1
6	6	5	34	1	11	NaN	2	3.604818 	1
6	6	5	35	2	18	2.4284	1	3.604818 	1
6	6	5	36	2	14	2.8467	1	3.604818 	1
6	6	5	37	1	25	NaN	2	3.604818 	1
6	6	5	38	1	27	NaN	2	3.604818 	1
6	6	5	39	2	3	2.7549	1	3.604818 	1
6	6	5	40	1	10	NaN	2	3.604818 	1
6	6	5	41	2	25	2.0449	1	3.604818 	1
6	6	5	42	2	27	2.3436	1	3.604818 	1
6	6	5	43	1	16	5.4770	-1	3.604818 	0
6	6	5	44	1	20	NaN	2	3.604818 	1
6	6	5	45	2	2	3.0473	1	3.604818 	1
6	6	5	46	2	30	2.1357	1	3.604818 	1
6	6	5	47	2	35	3.6630	1	3.604818 	1
6	6	5	48	1	32	NaN	2	3.604818 	1
6	6	5	49	1	29	NaN	2	3.604818 	1
6	6	5	50	2	10	2.7212	1	3.604818 	1
6	6	5	51	1	9	NaN	2	3.604818 	1
6	6	5	52	2	22	NaN	0	3.604818 	0
6	6	5	53	1	35	NaN	2	3.604818 	1
6	6	5	54	2	15	2.6297	1	3.604818 	1
6	6	5	55	2	7	2.4102	1	3.604818 	1
6	6	5	56	2	9	2.2859	1	3.604818 	1
6	6	5	57	1	1	NaN	2	3.604818 	1
6	6	5	58	1	5	NaN	2	3.604818 	1
6	6	5	59	1	21	NaN	2	3.604818 	1
6	6	5	60	3	5	NaN	2	3.604818 	1
6	6	5	61	2	4	2.2803	1	3.604818 	1
6	6	5	62	2	29	2.6514	1	3.604818 	1
6	6	5	63	2	16	2.9237	1	3.604818 	1
6	6	5	64	2	12	3.0972	1	3.604818 	1
6	6	5	65	1	30	NaN	2	3.604818 	1
6	6	5	66	3	3	NaN	2	3.604818 	1
6	6	5	67	2	31	2.7711	1	3.604818 	1
6	6	5	68	1	17	NaN	2	3.604818 	1
6	6	5	69	1	14	NaN	2	3.604818 	1
6	6	5	70	1	7	NaN	2	3.604818 	1
6	6	5	71	3	4	NaN	2	3.604818 	1
6	6	5	72	1	4	NaN	2	3.604818 	1
6	6	5	73	2	6	2.0049	1	3.604818 	1
6	6	5	74	1	22	NaN	2	3.604818 	1
6	6	5	75	4	5	0.3560	1	3.604818 	1
6	6	5	76	2	5	2.5969	1	3.604818 	1
6	6	5	77	2	19	2.4248	1	3.604818 	1
6	6	5	78	2	11	2.3261	1	3.604818 	1
6	6	5	79	2	20	2.0385	1	3.604818 	1
6	6	5	80	1	12	NaN	2	3.604818 	1
7	1	4	1	3	5	NaN	2	3.919928 	1
7	1	4	2	1	34	NaN	2	3.919928 	1
7	1	4	3	2	14	2.0717	1	3.919928 	1
7	1	4	4	2	33	1.6212	1	3.919928 	1
7	1	4	5	1	14	NaN	2	3.919928 	1
7	1	4	6	1	4	NaN	2	3.919928 	1
7	1	4	7	3	3	NaN	2	3.919928 	1
7	1	4	8	2	6	1.7455	1	3.919928 	1
7	1	4	9	2	18	1.3193	1	3.919928 	1
7	1	4	10	1	24	NaN	2	3.919928 	1
7	1	4	11	1	16	NaN	2	3.919928 	1
7	1	4	12	2	25	1.5581	1	3.919928 	1
7	1	4	13	1	21	NaN	2	3.919928 	1
7	1	4	14	1	31	NaN	2	3.919928 	1
7	1	4	15	4	3	0.4555	1	3.919928 	1
7	1	4	16	1	17	NaN	2	3.919928 	1
7	1	4	17	2	28	1.7499	1	3.919928 	1
7	1	4	18	1	9	NaN	2	3.919928 	1
7	1	4	19	1	10	NaN	2	3.919928 	1
7	1	4	20	2	27	1.2313	1	3.919928 	1
7	1	4	21	1	32	NaN	2	3.919928 	1
7	1	4	22	2	23	1.6799	1	3.919928 	1
7	1	4	23	1	3	NaN	2	3.919928 	1
7	1	4	24	2	26	NaN	0	3.919928 	0
7	1	4	25	2	29	1.1800	1	3.919928 	1
7	1	4	26	1	15	NaN	2	3.919928 	1
7	1	4	27	4	4	0.3916	1	3.919928 	1
7	1	4	28	1	7	NaN	2	3.919928 	1
7	1	4	29	3	2	NaN	2	3.919928 	1
7	1	4	30	2	13	1.6101	1	3.919928 	1
7	1	4	31	2	11	1.4973	1	3.919928 	1
7	1	4	32	1	30	NaN	2	3.919928 	1
7	1	4	33	1	35	NaN	2	3.919928 	1
7	1	4	34	1	12	NaN	2	3.919928 	1
7	1	4	35	2	10	1.8070	1	3.919928 	1
7	1	4	36	1	26	NaN	2	3.919928 	1
7	1	4	37	1	5	NaN	2	3.919928 	1
7	1	4	38	2	22	1.7696	1	3.919928 	1
7	1	4	39	4	2	0.3393	1	3.919928 	1
7	1	4	40	1	25	NaN	2	3.919928 	1
7	1	4	41	1	23	NaN	2	3.919928 	1
7	1	4	42	1	11	NaN	2	3.919928 	1
7	1	4	43	2	31	1.5702	1	3.919928 	1
7	1	4	44	2	34	1.3678	1	3.919928 	1
7	1	4	45	2	9	1.0609	1	3.919928 	1
7	1	4	46	2	19	1.3382	1	3.919928 	1
7	1	4	47	2	17	1.4481	1	3.919928 	1
7	1	4	48	1	1	NaN	2	3.919928 	1
7	1	4	49	2	1	0.9815	1	3.919928 	1
7	1	4	50	1	22	NaN	2	3.919928 	1
7	1	4	51	4	1	0.6037	1	3.919928 	1
7	1	4	52	1	19	3.4341	-1	3.919928 	0
7	1	4	53	2	20	1.4396	1	3.919928 	1
7	1	4	54	2	3	1.9300	1	3.919928 	1
7	1	4	55	1	28	NaN	2	3.919928 	1
7	1	4	56	2	12	1.5044	1	3.919928 	1
7	1	4	57	1	27	NaN	2	3.919928 	1
7	1	4	58	2	2	1.6103	1	3.919928 	1
7	1	4	59	1	2	NaN	2	3.919928 	1
7	1	4	60	2	24	1.5172	1	3.919928 	1
7	1	4	61	1	6	NaN	2	3.919928 	1
7	1	4	62	2	16	1.4962	1	3.919928 	1
7	1	4	63	2	15	1.5372	1	3.919928 	1
7	1	4	64	2	4	1.4500	1	3.919928 	1
7	1	4	65	1	20	NaN	2	3.919928 	1
7	1	4	66	2	32	1.3838	1	3.919928 	1
7	1	4	67	1	29	NaN	2	3.919928 	1
7	1	4	68	1	33	NaN	2	3.919928 	1
7	1	4	69	2	7	1.7337	1	3.919928 	1
7	1	4	70	2	30	1.8461	1	3.919928 	1
7	1	4	71	2	8	1.7334	1	3.919928 	1
7	1	4	72	4	5	0.5643	1	3.919928 	1
7	1	4	73	3	4	NaN	2	3.919928 	1
7	1	4	74	3	1	NaN	2	3.919928 	1
7	1	4	75	2	21	1.9101	1	3.919928 	1
7	1	4	76	1	13	NaN	2	3.919928 	1
7	1	4	77	2	5	1.3741	1	3.919928 	1
7	1	4	78	1	18	NaN	2	3.919928 	1
7	1	4	79	1	8	NaN	2	3.919928 	1
7	1	4	80	2	35	1.6065	1	3.919928 	1
7	2	1	1	1	35	NaN	2	3.604818 	1
7	2	1	2	2	27	1.0104	1	3.604818 	1
7	2	1	3	2	29	0.9067	1	3.604818 	1
7	2	1	4	2	21	1.0393	1	3.604818 	1
7	2	1	5	2	3	0.8725	1	3.604818 	1
7	2	1	6	1	14	NaN	2	3.604818 	1
7	2	1	7	4	3	0.5004	1	3.604818 	1
7	2	1	8	2	19	0.9607	1	3.604818 	1
7	2	1	9	1	2	NaN	2	3.604818 	1
7	2	1	10	1	34	NaN	2	3.604818 	1
7	2	1	11	2	22	0.8911	1	3.604818 	1
7	2	1	12	1	11	NaN	2	3.604818 	1
7	2	1	13	1	5	NaN	2	3.604818 	1
7	2	1	14	1	18	NaN	2	3.604818 	1
7	2	1	15	4	4	0.3424	1	3.604818 	1
7	2	1	16	1	30	NaN	2	3.604818 	1
7	2	1	17	2	4	1.0427	1	3.604818 	1
7	2	1	18	4	5	0.3961	1	3.604818 	1
7	2	1	19	1	4	NaN	2	3.604818 	1
7	2	1	20	1	21	NaN	2	3.604818 	1
7	2	1	21	3	5	NaN	2	3.604818 	1
7	2	1	22	1	25	NaN	2	3.604818 	1
7	2	1	23	4	1	0.4380	1	3.604818 	1
7	2	1	24	3	1	NaN	2	3.604818 	1
7	2	1	25	2	23	1.1640	1	3.604818 	1
7	2	1	26	2	30	0.9618	1	3.604818 	1
7	2	1	27	1	6	NaN	2	3.604818 	1
7	2	1	28	3	3	NaN	2	3.604818 	1
7	2	1	29	1	9	NaN	2	3.604818 	1
7	2	1	30	1	33	NaN	2	3.604818 	1
7	2	1	31	3	4	NaN	2	3.604818 	1
7	2	1	32	1	28	NaN	2	3.604818 	1
7	2	1	33	1	26	NaN	2	3.604818 	1
7	2	1	34	2	9	NaN	0	3.604818 	0
7	2	1	35	1	3	NaN	2	3.604818 	1
7	2	1	36	2	18	0.9839	1	3.604818 	1
7	2	1	37	1	8	NaN	2	3.604818 	1
7	2	1	38	1	23	NaN	2	3.604818 	1
7	2	1	39	2	13	NaN	0	3.604818 	0
7	2	1	40	2	2	1.0557	1	3.604818 	1
7	2	1	41	1	29	NaN	2	3.604818 	1
7	2	1	42	3	2	NaN	2	3.604818 	1
7	2	1	43	2	33	1.1729	1	3.604818 	1
7	2	1	44	2	20	0.8024	1	3.604818 	1
7	2	1	45	2	12	0.6819	1	3.604818 	1
7	2	1	46	1	12	NaN	2	3.604818 	1
7	2	1	47	2	7	0.9691	1	3.604818 	1
7	2	1	48	2	17	0.9266	1	3.604818 	1
7	2	1	49	2	34	0.9129	1	3.604818 	1
7	2	1	50	1	31	NaN	2	3.604818 	1
7	2	1	51	2	32	0.8814	1	3.604818 	1
